timestamp,ax,ay,az,gx,gy,gz,mag_acc,mag_gyro,diff_acc,diff_gyro,diff_time,label
1960,-2.01,-0.54,5.84,0.31,-0.28,0.52,6.199782254,0.667008246,,,,0
2966,0.26,4.09,6.78,0.33,-0.24,-0.56,7.922379693,0.692892488,1.722597439,0.025884242,1006,0
3967,-2.58,3.19,6.49,0.08,-0.09,-0.97,7.678059651,0.977445651,-0.244320042,0.284553163,1001,0
4973,-1.73,0.97,7.28,-0.31,-0.09,1.16,7.545342935,1.20407641,-0.132716716,0.226630759,1006,0
5974,0.35,1.85,7.04,-0.09,-0.07,0.15,7.28742753,0.188414437,-0.257915405,-1.015661973,1001,0
6980,-0.86,-0.51,7.85,0.09,0.2,0.32,7.913418983,0.387943295,0.625991453,0.199528858,1006,0
7981,2.85,-0.41,6.63,-0.04,-0.28,-0.18,7.228243217,0.335261092,-0.685175766,-0.052682203,1001,0
8987,1.84,1.68,6.84,-0.13,-0.07,-0.14,7.279670322,0.203469899,0.051427105,-0.131791193,1006,0
9988,2.03,0.68,6.59,0.61,0.17,-1.42,6.929025906,1.554799022,-0.350644417,1.351329123,1001,0
10994,-2.68,3.22,6.38,-0.36,-0.34,-0.5,7.632509417,0.703704483,0.703483511,-0.851094539,1006,0
11995,0.25,5.14,5.05,-0.53,-0.3,0.08,7.210034674,0.614247507,-0.422474743,-0.089456976,1001,0
13001,0.82,0.63,7.44,-0.44,-0.27,0.48,7.511517823,0.704911342,0.301483149,0.090663835,1006,0
14002,1.5,-1.5,8.45,0.28,-0.22,-0.62,8.712204084,0.714982517,1.200686261,0.010071175,1001,0
15008,-0.38,3.27,5.33,-0.07,0.46,0.28,6.264678763,0.543046959,-2.447525321,-0.171935558,1006,1
16009,3.25,2.36,6.85,0.09,0.17,0.52,7.940692665,0.554436651,1.676013902,0.011389692,1001,1
17015,-0.49,1.02,5.52,0.19,0.38,-0.93,5.634793696,1.022448043,-2.305898969,0.468011392,1006,1
19021,1.01,-2.03,-12.58,-0.07,-0.17,0.02,12.78269925,0.18493242,7.147905549,-0.837515623,2006,1
26037,-5.97,-1,-8.52,-0.49,-0.86,-1.23,10.4513779,1.57879701,-2.331321346,1.39386459,7016,0
28043,-8.04,-4.57,-6.43,-0.5,0.76,0.92,11.26372052,1.293831519,0.812342623,-0.284965491,2006,0
29049,-8.8,-1.08,-0.67,0.82,-0.91,-0.15,8.891304741,1.234098862,-2.372415781,-0.059732658,1006,0
30050,-6.25,1.66,3.67,0.46,-0.1,-0.83,7.435522846,0.954201237,-1.455781895,-0.279897625,1001,0
31056,-5.59,-3.59,4.96,0.02,-0.24,0.97,8.290826256,0.999449849,0.855303409,0.045248612,1006,0
32057,-1.1,-2.15,5.82,-1.48,0.1,2.06,6.301182429,2.538503496,-1.989643827,1.539053647,1001,0
33063,-3.34,-2.82,5.62,-0.23,-0.42,0.43,7.119859549,0.643583716,0.81867712,-1.89491978,1006,0
34064,-2.55,-4.45,4.86,-0.3,0.34,-0.16,7.065734215,0.480832611,-0.054125334,-0.162751105,1001,0
35070,1.46,-3.86,5.37,-0.46,-0.91,-1.03,6.772599206,1.44934468,-0.29313501,0.968512068,1006,0
36071,-1.61,2.63,6.19,-0.24,-0.26,-0.91,6.915569391,0.976370831,0.142970185,-0.472973848,1001,0
37077,0.19,0.03,6.81,-0.53,-0.37,-1.52,6.812716052,1.65172637,-0.102853339,0.675355538,1006,0
38078,-1.77,0.8,6.77,0.28,-0.07,0.4,7.043138505,0.493254498,0.230422453,-1.158471871,1001,0
39084,-1.42,3.99,5.47,-0.14,-0.03,-0.41,6.917904307,0.434281015,-0.125234198,-0.058973483,1006,0
40085,-4.86,5.22,4.96,-0.95,-0.14,1.68,8.687324099,1.935071058,1.769419792,1.500790043,1001,0
42091,-1.36,-1.76,7.16,0.15,-0.34,-1.27,7.49751959,1.323253566,-1.189804509,-0.611817492,2006,0
43097,-1.09,1.69,6.58,0.01,0.34,-0.14,6.880450567,0.367831483,-0.617069023,-0.955422083,1006,1
44098,0.75,-1.8,2.4,1.04,-1.35,-4.37,3.092329219,4.690522359,-3.788121347,4.322690876,1001,1
45104,0.88,-0.48,7.02,-0.01,-0.06,0.03,7.091205821,0.0678233,3.998876602,-4.622699059,1006,1
46105,0.36,-0.52,7.21,-0.04,-0.03,0.01,7.237686094,0.050990195,0.146480273,-0.016833105,1001,1
50116,2.99,2.01,5.49,-0.24,-1.72,-0.65,6.566604907,1.854319282,-0.671081188,1.803329087,4011,0
51122,4.77,1.33,7.26,1.05,-0.28,1.51,8.788025944,1.860376306,2.221421038,0.006057024,1006,0
52123,1.83,0.8,8.15,-0.37,-0.46,2.26,8.3911501,2.335829617,-0.396875844,0.475453311,1001,0
53129,2.82,-2.48,6.44,0.15,0.07,0.96,7.454958082,0.97416631,-0.936192018,-1.361663307,1006,0
54130,-0.11,0.88,6.63,-0.06,0.61,-0.5,6.689050755,0.79101201,-0.765907327,-0.1831543,1001,0
55136,0.36,1.89,7.07,0.02,-0.21,-0.21,7.327114029,0.297657521,0.638063275,-0.493354489,1006,0
56137,2.03,2.89,6.58,-0.16,0.08,-0.2,7.467891269,0.268328157,0.140777239,-0.029329364,1001,0
57143,-0.01,0.36,7.1,-0.27,-0.2,-0.26,7.109127935,0.424852916,-0.358763333,0.156524758,1006,0
58144,2.38,1.56,6.86,0.26,0.04,0.87,7.426816276,0.908900435,0.317688341,0.484047519,1001,0
59150,1.92,0.82,7.19,-0.11,0.37,0.06,7.486982036,0.3906405,0.060165759,-0.518259935,1006,1
60151,-0.55,1.36,6.87,-0.06,0.24,-0.28,7.024884341,0.373630834,-0.462097695,-0.017009666,1001,1
61157,-6.3,-2.24,5.27,0.05,0.48,1.42,8.513548027,1.499766649,1.488663686,1.126135815,1006,1
63163,3.82,3.55,7.25,-0.41,1.67,1.46,8.930699861,2.255792544,0.417151834,0.756025895,2006,1
64164,-0.08,-0.46,7.28,-0.04,-0.02,0.01,7.294957162,0.045825757,-1.635742698,-2.209966787,1001,1
81210,0.28,0.05,6.74,-0.11,0.03,1.13,6.745998814,1.135737646,-0.548958348,1.089911889,17046,0
82211,2.7,-2.3,7.32,-0.43,0.18,0.44,8.134027293,0.64101482,1.388028479,-0.494722825,1001,0
83217,-2.92,-2.49,6.48,-0.51,0.22,0.09,7.531062342,0.562672196,-0.602964951,-0.078342625,1006,0
84218,-3.58,-0.35,7.34,-0.42,0.17,0.65,8.174013702,0.792338312,0.64295136,0.229666116,1001,0
85224,-1.75,-2.98,5.77,0.01,-0.17,0.51,6.725756463,0.537680202,-1.448257239,-0.254658109,1006,0
86225,-2.1,-3.14,6.24,0.22,0.62,-0.79,7.294326562,1.028056419,0.568570099,0.490376216,1001,0
87231,-2.54,-2.32,6.17,0.23,-0.2,-0.25,7.064198468,0.394208067,-0.230128094,-0.633848352,1006,0
88232,-2.24,-3.12,6.75,-0.12,-0.12,0.06,7.766241047,0.18,0.702042579,-0.214208067,1001,0
91243,0.55,-2.1,7.23,-0.17,-0.13,-0.09,7.548867465,0.232163735,-0.217373582,0.052163735,3011,0
92244,-0.03,-1.44,6.31,-0.06,0.1,0.95,6.472294802,0.95713113,-1.076572663,0.724967395,1001,0
93250,-0.3,-5.17,6.2,-0.2,0.49,-0.05,8.078298088,0.531601354,1.606003286,-0.425529776,1006,0
94251,-2.12,-3.21,6.89,-0.16,0.13,-0.17,7.891172283,0.267207784,-0.187125805,-0.26439357,1001,0
95257,-0.06,-3.43,6.85,0.09,-0.15,-0.15,7.661005156,0.230434372,-0.230167127,-0.036773412,1006,0
96258,-0.1,-3.12,7.08,0.39,0.31,-0.31,7.737622374,0.586770824,0.076617218,0.356336452,1001,0
98264,-0.63,-2.58,7.22,0.33,-0.04,-0.29,7.692964318,0.4411349,-0.044658056,-0.145635924,2006,0
99270,-2.04,-1.55,6.73,-0.09,0.06,-0.14,7.201180459,0.17691806,-0.491783859,-0.26421684,1006,0
100271,-0.71,-0.56,6.92,0.33,-0.54,2.06,6.978832281,2.155017401,-0.222348178,1.978099341,1001,0
101277,0.08,-1.31,6.67,-0.06,0.22,0.69,6.797896734,0.726704892,-0.180935547,-1.428312509,1006,0
102278,-2.7,-2.92,6.73,-0.35,-0.18,0.39,7.81724376,0.554075807,1.019347026,-0.172629085,1001,0
103284,-0.76,-2.82,6.65,0.05,-0.07,0.06,7.263091628,0.104880885,-0.554152132,-0.449194922,1006,0
104285,-0.57,-1.16,6.69,0.38,0.24,-0.01,6.813706774,0.449555336,-0.449384854,0.344674451,1001,0
105291,-1.31,-1.23,7.02,0.18,-0.18,0.09,7.246337006,0.27,0.432630232,-0.179555336,1006,0
106292,-0.19,-0.5,7.1,-0.12,0.07,0.32,7.120119381,0.348855271,-0.126217625,0.078855271,1001,0
107298,0.72,0.74,5.95,0.05,0.33,0.18,6.038915466,0.379209705,-1.081203915,0.030354434,1006,0
108299,0.83,0.5,6.69,-0.31,0.17,-1,6.75980769,1.060660172,0.720892224,0.681450467,1001,0
109305,0.13,-0.41,8.11,-0.15,-0.22,-0.73,8.121397663,0.777045687,1.361589973,-0.283614485,1006,0
110306,1.7,-0.1,6.74,0.06,0.03,0.82,6.951805521,0.822739327,-1.169592142,0.04569364,1001,0
111312,1.11,-0.26,7.5,0.06,0.09,0.46,7.586151857,0.472546294,0.634346336,-0.350193033,1006,1
112313,3.84,-1.34,6.02,0.48,-0.18,0.54,7.265094631,0.744580419,-0.321057226,0.272034125,1001,1
113319,5.95,-1.08,-0.7,4.37,0.83,0.06,6.087602155,4.448527846,-1.177492476,3.703947428,1006,1
115325,0.41,-0.42,7.25,-0.03,-0.02,0.01,7.273719819,0.037416574,1.186117663,-4.411111273,2006,1
123346,0.32,-0.51,7.1,-0.05,-0.05,0.02,7.12548244,0.073484692,-0.148237379,0.036068118,8021,1
124347,1.2,-0.54,7.23,-0.18,-0.15,-0.14,7.348775408,0.272946881,0.223292968,0.199462189,1001,0
125353,-6.24,-2,5.25,-0.49,0.2,-0.36,8.396433767,0.64007812,1.047658359,0.367131239,1006,0
126354,-8.31,-1.53,0.73,0.3,-0.22,-0.25,8.481149686,0.448218697,0.084715919,-0.191859424,1001,0
127360,-1.37,-4.2,5.32,0.07,-0.7,-0.02,6.915150035,0.703775532,-1.565999652,0.255556836,1006,0
128361,-0.26,-2.56,6.68,-0.34,0.05,-0.24,7.158463522,0.419165838,0.243313488,-0.284609694,1001,0
129367,-1.91,-2.38,6.63,0.22,0.3,-0.83,7.298588905,0.909560333,0.140125382,0.490394495,1006,0
130368,1.39,0.12,7.34,-0.23,-0.43,0.58,7.471418875,0.757759856,0.17282997,-0.151800477,1001,0
131374,0.64,-1.36,7.06,0.07,0.48,-0.04,7.218226929,0.486723741,-0.253191946,-0.271036115,1006,0
132375,0.81,0.45,6.65,0.2,-0.29,-1.29,6.714246049,1.337235955,-0.503980881,0.850512214,1001,0
133381,-1.11,1.96,6.97,-0.12,-0.59,-1.28,7.324930034,1.414531725,0.610683985,0.077295769,1006,0
134382,1.09,0.59,7,-0.1,0.2,-0.28,7.108881769,0.358329457,-0.216048265,-1.056202267,1001,0
135388,1.77,0.57,7.36,-0.02,-0.64,0.23,7.591271303,0.680367548,0.482389535,0.32203809,1006,0
136389,1.98,2.26,7.24,0.38,0.96,1.04,7.838724386,1.465469208,0.247453083,0.78510166,1001,0
138395,0.69,4.21,6.63,-0.42,-0.44,0.78,7.883977423,0.989141042,0.045253037,-0.476328167,2006,0
140401,3.72,2.23,6.49,0.99,-1.7,-0.86,7.805856776,2.147021192,-0.078120647,1.157880151,2006,0
142407,-0.17,4.39,6.04,0.01,-0.04,-0.36,7.468775,0.362353419,-0.337081776,-1.784667774,2006,0
143413,-1.15,2.09,6.25,-0.29,-0.5,0.06,6.689775781,0.581119609,-0.778999219,0.21876619,1006,0
144414,4.43,2.98,5.29,0.57,-0.44,1.35,7.515943055,1.530032679,0.826167274,0.94891307,1001,1
145420,3.94,2.84,6.02,-0.74,-0.41,-0.86,7.734959599,1.206358156,0.219016545,-0.323674524,1006,1
146421,9.65,-2.67,5.35,0.1,-0.4,0.04,11.35226409,0.414246304,3.617304492,-0.792111852,1001,1
147427,0.58,-0.48,7.25,-0.04,-0.03,0.01,7.28898484,0.050990195,-4.063279251,-0.363256108,1006,1
148428,0.43,-0.46,7.27,-0.04,-0.03,0.01,7.297218648,0.050990195,0.008233808,0,1001,1
152439,0.55,-0.45,7.25,-0.04,-0.03,0.01,7.284744333,0.050990195,-0.012474315,0,4011,1
158455,0.58,-0.2,7.15,-0.04,0.01,0.01,7.176273406,0.042426407,-0.108470927,-0.008563788,6016,1
160461,0.13,-0.92,7.31,-0.07,-0.05,-0.01,7.368812659,0.08660254,0.192539253,0.044176134,2006,1
161467,2.08,0.15,7.91,-0.58,-0.35,-0.15,8.180281169,0.69382995,0.81146851,0.60722741,1006,0
162468,3.65,2.47,7.9,0.3,-0.78,0.65,9.046181515,1.058725649,0.865900346,0.364895699,1001,0
163474,1.62,2.84,7.02,0.05,0.47,0.55,7.744055785,0.72518963,-1.30212573,-0.333536019,1006,0
164475,3.69,1.23,6.05,-0.33,-0.22,0.2,7.192461331,0.444184646,-0.551594454,-0.281004984,1001,0
165481,3.56,1.02,7.03,0.01,-0.24,1.71,7.94574729,1.726788927,0.753285959,1.282604281,1006,0
166482,1.49,-0.9,7.33,0.27,0.37,0.46,7.533856914,0.649153295,-0.411890376,-1.077635633,1001,0
167488,0.15,0.16,8.52,-0.19,0.65,-0.93,8.522822303,1.1504347,0.988965389,0.501281406,1006,0
168489,2.49,-3.41,6.33,0.14,-0.15,-0.75,7.609014391,0.777560287,-0.913807912,-0.372874413,1001,0
169495,1.29,0.77,6.47,1.27,-0.05,1.6,6.642130682,2.043379554,-0.966883709,1.265819267,1006,0
170496,0.16,-2.06,7.45,-0.74,0.81,1.41,7.731215946,1.786560942,1.089085264,-0.256818611,1001,0
171502,-1.07,-1.5,6.78,0.04,0.32,-0.28,7.025902077,0.42708313,-0.705313868,-1.359477812,1006,0
172503,-2.88,-0.74,6.47,0.2,-1.62,-0.66,7.120596885,1.760681686,0.094694808,1.333598556,1001,0
173509,1.19,-1.25,6.84,0.07,-0.08,1.41,7.054374529,1.414001414,-0.066222356,-0.346680272,1006,0
176515,-7.29,-0.37,0.08,0.68,-0.31,0.09,7.299821916,0.752728371,0.245447386,-0.661273044,3006,0
177521,-7.57,-0.49,4.83,-1.01,-0.21,1.01,8.992991716,1.443710497,1.6931698,0.690982127,1006,0
179527,-1.13,0.63,6.58,0.6,0.62,0.3,6.705982404,0.91345498,-2.287009312,-0.530255518,2006,0
180528,-2.14,0.11,6.7,0.65,0.39,-1.1,7.034322995,1.335889217,0.328340591,0.422434237,1001,0
181534,-1.31,-0.02,7.5,0.19,0.05,-1.13,7.613573405,1.146952484,0.57925041,-0.188936733,1006,0
182535,-2.19,1.46,6.74,0.31,-0.28,-0.78,7.235696235,0.884816365,-0.377877171,-0.262136119,1001,0
183541,-1.93,2.45,6.76,-0.13,-0.29,0.44,7.444796841,0.54277067,0.209100606,-0.342045695,1006,1
184542,0.31,0.06,6.13,-0.03,0.15,0.39,6.13812675,0.418927201,-1.306670091,-0.123843468,1001,1
187553,0.37,-7.95,3.45,-0.15,0.12,-0.11,8.674208898,0.221359436,2.536082148,-0.197567765,3011,1
191564,8.59,-7.01,0.77,0.08,-1.33,-0.76,11.11400468,1.533916556,2.439795781,1.31255712,4011,1
193570,10.12,-0.58,1.48,-0.04,1.33,-0.09,10.24408122,1.333641631,-0.869923461,-0.200274925,2006,0
194571,-0.29,-2.43,5.99,0.21,0.02,0.02,6.470633663,0.211896201,-3.773447555,-1.12174543,1001,0
195577,1.4,-0.73,7.32,-0.16,0.17,0.09,7.488344276,0.25019992,1.017710613,0.038303719,1006,0
196578,-0.91,4.77,5.65,-0.32,-1.04,-2.07,7.450067114,2.338567938,-0.038277162,2.088368018,1001,0
197584,-0.62,1.47,6.07,0.03,-0.34,-0.75,6.276161247,0.824014563,-1.173905867,-1.514553375,1006,0
198585,-0.16,1.25,5.61,0.22,-0.63,-1.09,5.749799997,1.278045383,-0.526361251,0.45403082,1001,0
199591,-2.02,1.32,6.39,-0.48,-1.16,1.3,6.830439225,1.807207791,1.080639228,0.529162408,1006,0
200592,-0.82,-1.07,7.04,-0.46,-0.17,-1.12,7.167907644,1.222661032,0.33746842,-0.584546759,1001,0
201598,3.52,0.85,7.28,1,0.83,-0.34,8.130885561,1.343316791,0.962977916,0.120655758,1006,0
202599,-1.1,2.08,6.8,-0.08,0.15,1.59,7.195581978,1.599062225,-0.935303583,0.255745435,1001,0
203605,-1.51,1.31,6.7,-0.66,0.42,1.95,6.991866704,2.101071155,-0.203715274,0.50200893,1006,0
204606,2.26,0,7.97,0.04,-0.76,1.02,8.28423201,1.272635062,1.292365307,-0.828436094,1001,0
205612,0.76,-0.77,7.35,-0.21,0.13,-1.95,7.429199149,1.965578795,-0.855032861,0.692943734,1006,0
206613,-0.05,-0.76,6.74,-0.29,0.05,-0.71,6.782897611,0.768570101,-0.646301538,-1.197008694,1001,0
207619,0.57,-0.94,6.98,0.41,0.56,-0.99,7.066038494,1.209049213,0.283140883,0.440479112,1006,1
208620,-2.13,-2.15,6.37,-0.49,-0.15,1.99,7.052396756,2.054920923,-0.013641738,0.84587171,1001,1
209626,-2.67,4.78,5.25,0.72,0.68,1.4,7.585499324,1.714876089,0.533102569,-0.340044834,1006,1
213637,0.22,-1.26,7.16,-0.04,-0.06,0,7.27334861,0.072111026,-0.312150715,-1.642765063,4011,1
214638,0.37,-1.22,7.18,-0.04,-0.02,0.03,7.292304163,0.053851648,0.018955553,-0.018259377,1001,1
219654,0.4,-1.17,7.21,-0.04,-0.03,-0.02,7.315258027,0.053851648,0.022953864,0,5016,1
227675,1.57,-1.56,6.73,-0.16,1.01,-0.27,7.084588908,1.05763888,-0.230669119,1.003787232,8021,0
228676,1.19,0.38,7.34,-0.2,-0.03,-0.88,7.445542291,0.902939644,0.360953382,-0.154699236,1001,0
229682,1.41,0.56,7.04,-0.12,-0.02,-0.68,7.201617874,0.690796642,-0.243924417,-0.212143002,1006,0
230683,1.76,-1.14,6.66,-0.6,0.05,-0.78,6.982320531,0.98534258,-0.219297343,0.294545938,1001,0
231689,1.71,0.51,6.82,0.25,0.3,1.42,7.049581548,1.472718575,0.067261017,0.487375995,1006,0
232690,-1.47,0.77,6.97,-0.23,-0.07,-0.91,7.164823794,0.941222609,0.115242246,-0.531495965,1001,0
233696,-0.63,-0.48,6.82,0.04,-0.09,0.05,6.86583571,0.11045361,-0.298988084,-0.830768999,1006,0
234697,-1.14,-0.87,7.04,0.56,-0.03,-0.31,7.184573752,0.640780774,0.318738042,0.530327164,1001,0
235703,-1.58,-0.35,7.51,-0.23,0.79,-0.67,7.682382443,1.061084351,0.497808691,0.420303577,1006,0
236704,0.31,-0.06,7.06,0.19,0.08,-0.94,7.067057379,0.962340896,-0.615325064,-0.098743455,1001,0
237710,-4.33,2.91,5.29,-0.73,-0.43,0.81,7.429744276,1.172134805,0.362686896,0.209793909,1006,0
238711,4.75,2.75,6.34,-0.27,-0.6,1.43,8.385737892,1.574102919,0.955993617,0.401968115,1001,0
239717,4.36,1.11,7.06,-0.37,0.37,0.25,8.371696363,0.579913787,-0.014041529,-0.994189132,1006,0
240718,2.97,0.42,7.15,-0.58,-0.44,0.24,7.753695893,0.766550716,-0.61800047,0.186636929,1001,0
241724,3.39,1.68,7.61,-0.11,0.15,0.39,8.498623418,0.432087954,0.744927525,-0.334462762,1006,0
242725,0.37,1.9,6.57,0,0.21,0.34,6.849218934,0.399624824,-1.649404484,-0.03246313,1001,1
243731,-1.7,3.19,5.68,-0.17,0.27,-0.3,6.732644354,0.437949769,-0.116574579,0.038324945,1006,1
245737,0.62,-0.4,7.31,-0.05,-0.02,0.01,7.347142302,0.054772256,0.614497947,-0.383177513,2006,1
252753,1.58,-2.52,7.63,-0.11,0,-0.62,8.189242944,0.62968246,0.842100643,0.574910204,7016,1
253759,2.1,0.62,6.83,-0.07,0.07,-0.8,7.172398483,0.806101731,-1.016844461,0.176419271,1006,0
254760,1.69,0.37,7.55,-0.16,0.04,0.02,7.745676213,0.166132477,0.57327773,-0.639969253,1001,0
255766,1.31,0,7.14,-0.05,0.01,-0.14,7.259180395,0.148996644,-0.486495819,-0.017135833,1006,0
256767,0.78,0.06,7.21,-0.06,-0.03,0.05,7.252316871,0.083666003,-0.006863523,-0.065330642,1001,0
258773,2.27,-2.15,7.41,0.46,-0.08,-1.29,8.042605299,1.371896498,0.790288428,1.288230495,2006,0
259779,-2.44,-0.61,7.45,-0.12,-0.02,0.19,7.863090995,0.225610283,-0.179514304,-1.146286214,1006,0
260780,-4.73,0.95,5.15,-0.08,0.21,-0.75,7.056762714,0.782943165,-0.806328281,0.557332882,1001,0
261786,-2.72,3,5.3,0.04,0.19,0.67,6.669962519,0.697567201,-0.386800195,-0.085375964,1006,0
262787,-2.04,2.52,6.59,-0.17,-0.07,-0.12,7.344392419,0.219544984,0.6744299,-0.478022217,1001,0
263793,1.67,1.03,7.42,-0.31,-0.13,-0.66,7.675037459,0.740675367,0.33064504,0.521130383,1006,0
264794,0.83,0.84,7.22,-0.14,-0.15,-0.1,7.315934663,0.228254244,-0.359102796,-0.512421123,1001,1
265800,-1.07,-0.28,5.34,-1.11,-0.15,-0.49,5.453338427,1.222579241,-1.862596236,0.994324997,1006,1
268806,0.49,-0.46,7.18,-0.04,-0.03,0.01,7.211386829,0.050990195,1.758048402,-1.171589046,3006,1
272817,3.34,3.44,6.68,-0.38,0.17,0.55,8.222627317,0.689782574,1.011240488,0.638792379,4011,1
273823,1.18,2.4,7.2,-0.04,-0.22,0.04,7.680651014,0.227156334,-0.541976303,-0.462626241,1006,0
274824,0.54,1.75,7.45,0.2,-0.07,-0.21,7.671805524,0.298328678,-0.00884549,0.071172344,1001,0
275830,0.94,0.78,7.05,0.08,-0.54,0.25,7.155033193,0.600416522,-0.516772331,0.302087844,1006,0
276831,2.99,-0.02,6.74,0.56,0.49,0.36,7.373472723,0.826619622,0.21843953,0.2262031,1001,0
277837,2.89,2.19,7.29,0.26,-0.85,-0.1,8.142008352,0.894483091,0.768535629,0.067863469,1006,0
278838,0.03,2.98,6.19,-0.13,-0.47,0.32,6.87003639,0.583266663,-1.271971962,-0.311216428,1001,0
279844,6.01,3.51,3.76,-0.01,-0.68,0.38,7.910613124,0.779037868,1.040576734,0.195771205,1006,0
280845,6.58,5.34,3.11,0.65,0.77,0.13,9.02685438,1.016021653,1.116241256,0.236983785,1001,0
281851,5.92,6.1,1.94,2.03,1.12,1.5,8.71894489,2.761394575,-0.30790949,1.745372922,1006,0
284857,1.7,-1.23,7.18,-0.2,-0.24,-0.27,7.480327533,0.412916456,-1.238617357,-2.348478119,3006,0
285863,6.32,0.02,6.09,0.29,-0.47,-0.89,8.776724902,1.047425415,1.296397369,0.634508959,1006,0
286864,-1.1,4.52,4.4,-0.18,0.12,-0.45,6.403155472,0.499299509,-2.37356943,-0.548125906,1001,0
287870,0.71,1.75,6.95,0.37,0.38,0.72,7.20202055,0.89425947,0.798865078,0.394959961,1006,0
288871,-0.82,3.21,6.96,-0.07,-0.12,0.83,7.708313694,0.841546196,0.506293144,-0.052713274,1001,0
289877,2.21,1.72,6.31,-0.01,-0.23,0.86,6.903520841,0.890280855,-0.804792853,0.048734659,1006,0
291883,4.1,1.36,5.99,0.37,-0.37,-1.04,7.385099864,1.164216475,0.481579023,0.27393562,2006,0
293889,0.81,3.76,5.69,-0.03,-0.05,-0.56,6.868027373,0.56302753,-0.517072491,-0.601188944,2006,0
294890,-0.88,4.74,5.75,0.28,0.46,1.05,7.503632454,1.180042372,0.63560508,0.617014842,1001,1
295896,1.38,3.35,5.82,-0.61,0.25,0.14,6.855603547,0.673943618,-0.648028906,-0.506098754,1006,1
297902,0.54,-0.55,7.31,-0.04,-0.03,0.01,7.350523791,0.050990195,0.494920243,-0.622953423,2006,1
305923,-3.1,-2.4,6.1,-0.36,0.86,-0.2,7.251206796,0.953519795,-0.099316995,0.9025296,8021,0
306924,-5.77,-1.55,5.3,-0.05,0.13,0.23,7.986576238,0.268886593,0.735369442,-0.684633202,1001,0
307930,-4.77,-1.54,5.22,-0.21,-0.21,0.4,7.236912325,0.498196748,-0.749663913,0.229310155,1006,0
308931,-2.23,0.51,6.63,0.01,-0.11,0.81,7.013551169,0.817496177,-0.223361156,0.319299429,1001,0
309937,2.41,1.1,6.73,-0.18,0.25,0.82,7.232634375,0.87595662,0.219083206,0.058460443,1006,0
310938,-0.87,-0.8,7.2,-0.16,0.3,0.15,7.296362107,0.371618084,0.063727732,-0.504338536,1001,0
311944,-0.74,-3.38,6.28,0,-0.13,-0.22,7.170104602,0.255538647,-0.126257505,-0.116079437,1006,0
312945,-4.05,-0.74,5.27,0.93,0.77,-0.13,6.687525701,1.214372266,-0.482578901,0.958833619,1001,0
313951,-7.02,0.74,3.73,0.17,-0.44,0.06,7.983789827,0.475499737,1.296264126,-0.738872529,1006,0
314952,-5.23,3.12,4.6,0.31,-0.37,-0.16,7.631991876,0.508527285,-0.351797951,0.033027548,1001,0
315958,-6.11,4.47,2.39,0.19,0,-0.07,7.938834927,0.202484567,0.306843051,-0.306042718,1006,0
316959,-4.7,6.17,2.79,-0.19,-0.55,0.58,8.242754394,0.821583836,0.303919467,0.619099269,1001,0
317965,2.73,5.19,5.69,-0.28,0.03,0.44,8.170991372,0.522398315,-0.071763022,-0.299185521,1006,0
318966,5.15,1.9,5.59,-0.09,0.05,0.25,7.834577206,0.270370117,-0.336414166,-0.252028199,1001,0
319972,2.27,1.01,7.69,0.04,0.15,-0.22,8.081404581,0.26925824,0.246827375,-0.001111876,1006,0
321978,-5.62,5.14,2.58,0.18,-0.15,-0.35,8.041169069,0.421188794,-0.040235512,0.151930553,2006,0
322979,-6.24,4.5,2.45,0.12,-0.13,-0.07,8.074038642,0.190262976,0.032869573,-0.230925818,1001,0
323985,-7.34,3.39,1.39,0.07,0.09,0.02,8.203645531,0.115758369,0.129606889,-0.074504607,1006,0
324986,-5.3,6.19,2.5,-0.19,-1.54,0.72,8.523854762,1.710584695,0.320209231,1.594826326,1001,0
326992,6.79,5.2,2.21,0.15,-0.03,0.39,8.833357233,0.418927201,0.309502471,-1.291657494,2006,0
327998,8.24,3.32,2.24,0.04,0.42,0.12,9.161746558,0.438634244,0.328389326,0.019707043,1006,0
328999,4.26,3.79,5.48,-0.25,0.04,-0.49,7.90835634,0.551543289,-1.253390218,0.112909045,1001,0
330005,2.54,2.25,6.6,-0.05,0.21,0.11,7.421192627,0.242280829,-0.487163713,-0.309262461,1006,0
331006,-2.7,2.57,6.17,0.03,0.06,-0.54,7.208592096,0.544150714,-0.212600531,0.301869886,1001,0
332012,-1.32,2.93,6.25,0.06,-0.18,-0.19,7.027787703,0.268514432,-0.180804392,-0.275636283,1006,0
333013,-2.21,4.19,5.37,0.11,0.14,-0.47,7.160803028,0.502593275,0.133015324,0.234078843,1001,0
334019,-6.44,2.59,4.36,0.18,0.3,-1.12,8.19702995,1.173371212,1.036226922,0.670777937,1006,0
336025,-3.45,3.46,5.2,-0.75,0.88,0.21,7.135411691,1.175159564,-1.061618259,0.001788352,2006,0
337026,-2.62,3,5.46,0.27,-0.35,0.47,6.758402178,0.645213143,-0.377009513,-0.529946421,1001,1
338032,0.61,-0.54,4.84,-0.73,0.16,0.56,4.908085166,0.933862945,-1.850317012,0.288649802,1006,1
339033,7.82,-0.47,-0.37,-0.32,-4.37,3.65,7.842843872,5.702788791,2.934758706,4.768925846,1001,1
340039,0.53,-0.49,7.28,-0.04,-0.03,0.01,7.315695456,0.050990195,-0.527148416,-5.651798596,1006,1
350065,-0.69,-0.69,11.92,-2.44,-1.29,-0.38,11.95987458,2.786054558,4.644179126,2.735064363,10026,0
352071,-4.11,4.75,4.64,0.93,-0.91,-0.81,7.809238119,1.532677396,-4.150636462,-1.253377162,2006,0
353072,-5.92,4.19,4.03,0.04,-0.27,-0.61,8.297192296,0.668281378,0.487954177,-0.864396018,1001,0
354078,-2.9,2.18,6,-0.11,-0.16,0.69,7.011590404,0.716798437,-1.285601892,0.04851706,1006,0
355079,-0.14,0.41,6.95,-0.2,-0.14,0.8,6.963490504,0.836420947,-0.0480999,0.119622509,1001,0
356085,-4.92,0.8,3.81,0.2,-0.17,-0.26,6.273954096,0.369459064,-0.689536408,-0.466961883,1006,0
358091,5.78,3.04,5.76,0.07,-0.73,0.45,8.707904455,0.86040688,2.433950359,0.490947816,2006,0
359092,6.4,1.33,5.38,-0.06,1.38,0.53,8.466008505,1.479493156,-0.241895951,0.619086276,1001,0
361098,-5.43,-1.51,4.79,0.36,-0.3,-0.47,7.396560011,0.66370174,-1.069448493,-0.815791416,2006,0
362104,3.38,1.3,6.66,0.18,-0.78,-0.46,7.580897045,0.923255111,0.184337033,0.259553371,1006,0
363105,5.48,1.13,6.03,0.07,0.28,0.58,8.22606832,0.647842573,0.645171275,-0.275412538,1001,0
364111,-2.24,0.44,6.13,0.79,0.91,-0.3,6.541261346,1.241853454,-1.684806973,0.59401088,1006,0
365112,-2.3,-1.16,6.63,0.25,-1.38,-0.93,7.112840502,1.682795294,0.571579155,0.44094184,1001,0
367118,6.29,-0.32,5.63,0.36,0.02,0.82,8.447686074,0.895767827,1.334845572,-0.787027466,2006,0
368124,0.13,-0.26,6.64,-0.04,0.78,-0.33,6.646359906,0.847879708,-1.801326168,-0.047888119,1006,0
369125,-0.51,-0.01,7.43,-0.36,-0.36,-0.15,7.44748951,0.53075418,0.801129604,-0.317125528,1001,0
370131,5.99,-0.19,5.55,0.41,-0.43,0.58,8.168151566,0.83030115,0.720662056,0.29954697,1006,0
371132,0.26,0.31,7.45,-0.06,0.97,0.33,7.460978488,1.026352766,-0.707173078,0.196051616,1001,0
373138,-3.49,-0.82,5.7,0.19,-0.77,-0.26,6.733683984,0.834625665,-0.727294504,-0.191727101,2006,0
375144,1.27,-1.42,7.78,-0.49,1.79,0.87,8.009850186,2.049658508,1.276166202,1.215032844,2006,0
376150,-6.54,0.49,4.31,0.63,-0.3,-1.18,7.847789498,1.370875633,-0.162060688,-0.678782876,1006,0
377151,0.94,1.43,6.74,0.47,-1.18,0.19,6.953855046,1.284289687,-0.893934452,-0.086585946,1001,1
378157,4.53,0.76,5.16,-0.23,-0.03,1.13,6.908263168,1.153559708,-0.045591878,-0.130729979,1006,1
380163,-1.36,-0.69,7.08,-0.09,-0.97,0.32,7.242382205,1.025377979,0.334119037,-0.128181729,2006,1
381164,0.48,-0.56,7.25,-0.04,-0.03,0.05,7.287420669,0.070710678,0.045038464,-0.954667301,1001,1
387180,-2.64,-0.72,9.13,1.42,0.77,-0.9,9.531259098,1.849134933,2.24383843,1.778424255,6016,0
388186,-5.09,2.89,4.41,-0.9,-0.17,0.13,7.328594681,0.92509459,-2.202664417,-0.924040343,1006,0
389187,-7.49,1.37,2.15,0.55,-0.21,-0.43,7.91198458,0.729040465,0.583389899,-0.196054124,1001,0
390193,-3.68,0.83,5.66,0.15,0.06,0.13,6.801977654,0.207364414,-1.110006927,-0.521676052,1006,0
391194,5.13,1.63,5.85,0.02,-1,0.22,7.949610053,1.024109369,1.1476324,0.816744956,1001,0
392200,1.93,-2,7.06,0.3,0.09,0.39,7.587390856,0.50019996,-0.362219197,-0.523909409,1006,0
393201,-4.32,0.78,5.85,0.37,0.39,-0.32,7.313911402,0.625619693,-0.273479454,0.125419733,1001,0
395207,0.62,1.84,7.22,-0.54,-1.39,0.52,7.476523256,1.579271984,0.162611854,0.953652291,2006,0
397213,4.03,-2.22,6.32,-0.25,0.03,0.01,7.817397265,0.251992063,0.340874009,-1.327279921,2006,0
398219,4.83,-0.2,6.19,-0.16,-0.45,-0.65,7.853979883,0.806597793,0.036582618,0.55460573,1006,0
399220,5.48,1.32,5.53,0.68,0.02,0.89,7.896435905,1.120223192,0.042456022,0.313625399,1001,0
400226,3.91,-1.2,6.42,-0.1,-0.07,0.33,7.61212848,0.351852242,-0.284307425,-0.76837095,1006,0
401227,-0.04,1.48,7.44,-0.26,-1,-1.23,7.585881623,1.606393476,-0.026246857,1.254541234,1001,0
402233,-0.79,0.23,6.79,0.24,0.19,-0.22,6.839671045,0.376961536,-0.746210578,-1.22943194,1006,0
403234,4.45,0.11,6.35,-0.02,-0.09,-0.5,7.75481141,0.508428953,0.915140365,0.131467416,1001,0
404240,3.12,-0.15,6.64,0.23,0.19,0.49,7.338017443,0.57367238,-0.416793966,0.065243428,1006,0
405241,3.26,0.91,6.95,-0.1,0.15,-0.39,7.730342813,0.429651021,0.392325369,-0.144021359,1001,0
406247,1.78,0.44,7.49,0.08,0,-0.21,7.711167227,0.224722051,-0.019175586,-0.204928971,1006,0
407248,2.29,-0.11,6.68,0.06,-0.24,0.12,7.062478319,0.274954542,-0.648688908,0.050232491,1001,0
408254,-0.5,0.75,6.85,0.03,-0.93,-1.2,6.909052033,1.518486088,-0.153426285,1.243531546,1006,0
409255,5.82,-1.24,5.58,0.1,0.16,1.17,8.157597686,1.185116028,1.248545652,-0.33337006,1001,0
410261,3.5,-1.62,7.06,-0.06,0.89,0.11,8.044749841,0.898776947,-0.112847845,-0.286339081,1006,0
412267,-1.19,-0.47,7.15,0.11,-0.3,-0.2,7.263573501,0.376961536,-0.78117634,-0.52181541,2006,0
414273,-0.31,3.44,6.53,0.27,0.11,0.42,7.387191618,0.511272921,0.123618117,0.134311385,2006,0
415274,3.56,3.42,6.95,0.13,-0.28,0.1,8.524816714,0.324499615,1.137625096,-0.186773306,1001,1
416280,-3.79,3.41,6,0.11,-0.81,-0.24,7.873512558,0.851938965,-0.651304156,0.52743935,1006,1
417281,3,2.28,5.84,-0.53,-0.12,0.66,6.950107913,0.854926897,-0.923404645,0.002987933,1001,1
419287,0.55,-0.49,7.18,-0.04,-0.04,0.01,7.21768661,0.057445626,0.267578697,-0.797481271,2006,1
431318,-9.07,-1.6,2.01,0.26,-0.24,0.52,9.426823431,0.628967408,2.209136821,0.571521781,12031,0
433324,-6.16,1.8,5.2,-0.14,-1.3,-0.71,8.259878934,1.487850799,-1.166944497,0.858883391,2006,0
434330,1.16,1.72,6.48,0.21,-0.87,0.67,6.803998824,1.117989266,-1.45588011,-0.369861532,1006,0
436336,5.56,-0.77,7.23,0.07,0.34,0.98,9.153108762,1.039663407,2.349109937,-0.078325859,2006,0
437337,1.07,1.26,6.86,0.25,-0.04,-1.19,7.056351749,1.216634703,-2.096757013,0.176971296,1001,0
438343,-4.84,1.55,4.67,0.43,-0.32,-0.95,6.901956244,1.090779538,-0.154395504,-0.125855165,1006,0
439344,-4.75,0.9,5.17,0.23,0.23,-0.48,7.078234243,0.579827561,0.176277999,-0.510951977,1001,0
440350,-4.85,0.22,5.57,0.35,-1.46,0.49,7.388897076,1.579303644,0.310662833,0.999476083,1006,0
442356,6.88,2.76,4.12,0.3,1.4,0.77,8.480943344,1.625699849,1.092046268,0.046396205,2006,0
444362,-5.07,2,5.1,0.43,0.25,-0.9,7.464241422,1.028299567,-1.016701922,-0.597400282,2006,0
445363,-2.25,1.29,6.96,0.48,-0.54,0.68,7.427529872,0.99216934,-0.03671155,-0.036130227,1001,1
447369,0.33,-0.53,7.31,-0.05,-0.04,0,7.33661366,0.064031242,-0.090916212,-0.928138098,2006,1
454390,-4.13,0.29,5.82,0.92,0.83,-0.52,7.142366555,1.343763372,-0.194247106,1.27973213,7021,0
455391,-6.46,1.1,3.08,1.03,-0.08,-0.32,7.240718196,1.081526699,0.098351642,-0.262236673,1001,0
456397,-5.2,1.85,4.85,0.39,-0.13,-0.69,7.347448537,0.803181175,0.10673034,-0.278345524,1006,0
457398,-1.72,1.93,6.11,0.11,-0.17,-0.28,6.634410298,0.345543051,-0.713038239,-0.457638124,1001,0
458404,0.67,0.15,7.23,0.35,-0.5,0.41,7.262527108,0.735255058,0.628116811,0.389712007,1006,0
459405,6.26,2.46,5.5,0.31,-0.19,0.51,8.688452106,0.626338567,1.425924998,-0.108916491,1001,0
460411,6.83,1.85,4.46,0.18,0.16,0.62,8.3643888,0.665131566,-0.324063306,0.038792999,1006,0
461412,4.84,0.31,6.31,0.03,0.09,-0.01,7.958504885,0.09539392,-0.405883915,-0.569737646,1001,0
462418,0.31,0.29,7.29,0.05,0.13,-0.51,7.302348937,0.528677596,-0.656155948,0.433283675,1006,0
463419,-3.81,0.68,5.75,0.22,0.03,-0.41,6.931161519,0.466261729,-0.371187418,-0.062415866,1001,0
464425,-3.87,-0.38,5.93,0.22,-0.1,-0.22,7.091276331,0.326802693,0.160114812,-0.139459036,1006,0
465426,-4.74,-1.19,5.27,0.16,0.04,-0.08,7.187252604,0.183303028,0.095976274,-0.143499665,1001,0
466432,1.23,3.53,6.3,0.38,-0.15,0.65,7.325557999,0.767723909,0.138305395,0.584420881,1006,0
467433,2.82,2.93,6.55,0.09,-0.06,0.81,7.709721136,0.817190308,0.384163137,0.0494664,1001,1
468439,5.05,0.17,4.8,-0.22,-0.17,0.92,6.969318475,0.961093128,-0.740402662,0.143902819,1006,1
470445,0.58,-0.51,7.26,-0.04,-0.03,0.01,7.30096569,0.050990195,0.331647215,-0.910102933,2006,1
478466,-7.28,-1.11,5.5,0.9,1.93,-0.39,9.191327434,2.164948036,1.890361745,2.113957841,8021,0
479467,-7.45,2.56,2.01,0.34,-0.17,-0.11,8.129956949,0.395727179,-1.061370485,-1.769220858,1001,0
480473,-7.32,0.83,2.39,1.33,0.07,-1.13,7.744895093,1.746625318,-0.385061857,1.350898139,1006,0
481474,-6.37,1.38,4.58,0.8,-1.91,-0.17,7.966034145,2.077739156,0.221139052,0.331113838,1001,0
483480,5.08,0.76,5.63,-0.71,1.64,1.12,7.6210826,2.10905192,-0.344951545,0.031312764,2006,0
485486,-3.14,-3.51,5.54,0.02,0.43,0.18,7.271265364,0.466583326,-0.349817236,-1.642468594,2006,0
487492,-7.22,-4.64,2.22,-0.08,0.14,0.12,8.864897067,0.200997512,1.593631702,-0.265585813,2006,0
488498,-7.41,-3.22,2.53,-0.29,-0.9,-0.01,8.466250646,0.945621489,-0.398646421,0.744623976,1006,0
489499,-4.19,-1.47,6.85,-0.08,-1.17,0.15,8.163302028,1.182285921,-0.302948618,0.236664433,1001,0
490505,-1.02,-2.55,7.35,-0.11,-0.08,0.38,7.846362214,0.403608721,-0.316939814,-0.7786772,1006,0
491506,-1.28,-1.3,6.97,0.06,-0.75,-0.83,7.204810893,1.120267825,-0.641551322,0.716659104,1001,0
492512,4.86,2.99,6.08,-0.01,-0.46,0.18,8.338231227,0.494064773,1.133420335,-0.626203052,1006,0
493513,2.31,2.09,6.47,0,0.13,-0.22,7.180884347,0.255538647,-1.157346881,-0.238526126,1001,0
494519,2.68,0.58,6.94,-0.36,-0.15,-0.54,7.462064058,0.666108099,0.281179711,0.410569453,1006,0
495520,1.16,0.19,7.51,-0.14,0.06,-0.16,7.601434075,0.22090722,0.139370018,-0.445200879,1001,0
496526,2.38,1.02,7.35,-0.09,0.32,-0.03,7.792772292,0.333766385,0.191338217,0.112859165,1006,0
497527,2.44,0.53,7,0.64,-0.26,1.81,7.431991658,1.937343542,-0.360780635,1.603577157,1001,0
498533,4.2,0,7.1,0.36,0.5,0.58,8.249242389,0.846167832,0.817250732,-1.09117571,1006,0
499534,0.72,2.79,7.17,-0.03,0.24,-0.58,7.727315187,0.628410694,-0.521927202,-0.217757138,1001,0
500540,1.41,1.92,6.95,0.12,-0.39,-0.84,7.34690411,0.933862945,-0.380411077,0.305452251,1006,0
501541,-5.12,2.31,4.88,0.23,1.2,-0.31,7.44075937,1.260555433,0.09385526,0.326692488,1001,0
507557,1.24,-2.51,-12.5,-0.02,-0.06,-0.77,12.80967213,0.772593036,5.368912757,-0.487962397,6016,0
508563,2.12,-8.65,-9.96,2.46,0.97,0.8,13.36108154,2.762697957,0.551409416,1.99010492,1006,0
510569,1.18,-9.16,-1.29,0.31,-3.51,0.81,9.325347179,3.61556358,-4.035734365,0.852865623,2006,0
511570,1.23,-10.86,-2.55,-2.61,-1.7,0.27,11.22296752,3.12649964,1.897620343,-0.48906394,1001,0
512576,-1.01,-4.41,6.64,0.32,-0.42,-0.1,8.034786867,0.537401154,-3.188180655,-2.589098486,1006,0
513577,-1.64,-0.29,7.59,0.09,1.24,0.37,7.770572694,1.297150724,-0.264214173,0.75974957,1001,0
514583,-3.95,-0.14,5.96,0.43,-1.11,-0.07,7.151482364,1.192434485,-0.619090331,-0.104716239,1006,0
515584,6.17,3.74,4.94,0.3,-1.3,0.13,8.744146614,1.340484987,1.59266425,0.148050502,1001,0
521600,4.11,-1.3,6.42,-0.07,-0.35,-0.55,7.732948985,0.655667599,-1.011197629,-0.684817388,6016,0
522606,7.78,-1.12,4.01,0.03,-0.04,0.12,8.823995694,0.13,1.091046709,-0.525667599,1006,0
523607,6.22,-1.43,5.36,-0.04,0.2,-0.03,8.334440593,0.206155281,-0.4895551,0.076155281,1001,0
524613,10.6,-1.31,0.96,-0.29,-0.86,-0.85,10.72369806,1.243462907,2.389257463,1.037307625,1006,0
525614,9.55,2.82,-0.12,-0.88,-0.85,-0.72,9.958378382,1.419612623,-0.765319674,0.176149717,1001,0
528625,5.57,-0.64,5.45,-0.23,-0.1,-0.18,7.819015283,0.308706981,-2.139363099,-1.110905642,3011,0
529626,5.48,-0.89,5.43,-0.18,0.05,-0.08,7.765783927,0.203224014,-0.053231356,-0.105482966,1001,0
530632,5.65,-1.64,5.7,0.02,-0.58,0.13,8.191587148,0.594726828,0.425803221,0.391502814,1006,0
531633,8.59,-0.72,2.77,-0.11,0.84,-0.08,9.054247622,0.850940656,0.862660474,0.256213828,1001,0
532639,0.58,-1.07,6.6,0.42,0.93,-0.09,6.711281547,1.024402265,-2.342966075,0.173461609,1006,0
537650,-0.01,-1.03,6.68,-0.12,-0.15,-0.07,6.758949623,0.204450483,0.047668076,-0.819951782,5011,0
538656,3.21,3.06,5.01,0.21,0.47,2.07,6.690874382,2.13304946,-0.06807524,1.928598977,1006,0
540662,0.46,-0.51,7.24,-0.04,-0.03,0,7.272503008,0.05,0.581628626,-2.08304946,2006,0
