timestamp,ax,ay,az,gx,gy,gz,mag_acc,mag_gyro,diff_acc,diff_gyro,diff_time,label
3958,0.4,-10.02,-1.63,-0.02,-0.03,0.17,10.15959153,0.173781472,,,,0
4964,1.29,-9.93,-2.08,-0.13,0.41,-0.25,10.22718925,0.497493719,0.067597725,0.323712247,1006,0
5965,0.93,-9.08,-1.89,-0.14,0.05,-0.3,9.321126541,0.334813381,-0.906062711,-0.162680338,1001,0
6971,1.15,-9.84,-1.64,0,-0.08,0.04,10.04179765,0.089442719,0.720671106,-0.245370662,1006,0
7972,0.42,-9.45,-1.28,-0.2,0.33,-0.23,9.545538225,0.449221549,-0.496259423,0.35977883,1001,0
8978,1.16,-9.68,-1.56,-0.21,-0.13,-0.03,9.873277065,0.248797106,0.32773884,-0.200424443,1006,0
9979,-0.12,-9.7,-3.58,0.09,-0.41,0.22,10.34025145,0.473919824,0.466974383,0.225122718,1001,0
10985,-0.07,-9.04,-1.91,-0.15,0.22,-0.15,9.239837661,0.305614136,-1.100413787,-0.168305689,1006,0
11986,0.57,-9.49,-2.26,0.09,0.13,0.1,9.772031519,0.187082869,0.532193858,-0.118531266,1001,0
12992,0.73,-9.88,-2.19,-0.1,-0.09,0.14,10.1461027,0.194164878,0.374071181,0.007082009,1006,0
13993,1.66,-10.79,-1.81,-0.03,0,0.09,11.06597488,0.09486833,0.919872178,-0.099296549,1001,0
14999,0.75,-9.84,-1.87,-0.1,0.08,0.05,10.04415253,0.137477271,-1.02182235,0.042608941,1006,0
16000,1.09,-10.24,-2.97,-0.43,-0.19,-0.13,10.71758368,0.487749936,0.673431155,0.350272665,1001,0
17006,1.18,-9.51,-4.44,-0.44,-0.11,-0.15,10.56153871,0.477702836,-0.156044969,-0.010047099,1006,1
18007,2.21,-8.41,-8.67,-0.45,0.17,-0.63,12.27929558,0.792653771,1.717756869,0.314950934,1001,1
19013,2.14,-6.73,-10.32,-0.37,-0.02,-0.15,12.504995,0.399749922,0.22569942,-0.392903849,1006,1
20014,2.61,-4.34,-11.65,-0.04,-0.01,0.22,12.70315709,0.223830293,0.198162086,-0.175919629,1001,1
21020,2.58,-3.48,-12.26,-0.08,-0.05,-0.07,13.00286122,0.117473401,0.299704136,-0.106356892,1006,1
22021,2.57,-3.03,-12.39,0.07,-0.22,-0.18,13.01145265,0.292745623,0.008591424,0.175272222,1001,1
23027,1.74,-2.84,-12.18,-0.03,-0.05,0.01,12.62717704,0.059160798,-0.384275608,-0.233584826,1006,1
24028,1.98,-2.54,-11.91,-0.13,-0.08,-0.08,12.33775101,0.172336879,-0.289426029,0.113176082,1001,1
25034,1.91,-3.16,-12.03,-0.1,-0.02,-0.08,12.58390242,0.129614814,0.246151405,-0.042722065,1006,1
26035,1.34,-3.14,-11.41,-0.02,-0.03,0.28,11.90979849,0.282311884,-0.674103928,0.15269707,1001,0
27041,1.41,-6.16,-10.82,0.53,-0.15,0.16,12.5302075,0.573585216,0.620409013,0.291273332,1006,0
28042,1.67,-5.81,-9.57,-0.32,-0.04,-0.07,11.31944787,0.33,-1.210759634,-0.243585216,1001,0
29048,1.35,-3.91,-11.84,0.06,0.05,-0.03,12.54177818,0.083666003,1.222330317,-0.246333997,1006,0
30049,1.57,-4.66,-12.34,0.14,-0.06,0.05,13.28367795,0.160312195,0.741899771,0.076646193,1001,0
31055,2.25,-7.96,-8.84,0.96,0.41,-0.14,12.10659737,1.053233118,-1.17708058,0.892920922,1006,0
32056,1.84,-9.79,-4.61,0.4,0.01,-0.02,10.97642018,0.400624512,-1.130177194,-0.652608605,1001,0
33062,2.26,-9.04,-2.6,-0.09,-0.1,-0.18,9.674151126,0.224722051,-1.302269056,-0.175902462,1006,0
34063,1.4,-10.05,-2.41,-0.04,0,-0.02,10.42931445,0.04472136,0.755163329,-0.180000691,1001,0
35069,2.87,-9.44,-1.94,0.17,0.03,0.18,10.05555071,0.249399278,-0.373763749,0.204677919,1006,0
36070,1.51,-9.85,-2.06,-0.41,0.33,-0.14,10.17576533,0.544609952,0.120214622,0.295210674,1001,0
37076,1.21,-9.7,-2.38,-0.3,0.12,-0.11,10.06074053,0.341320963,-0.115024798,-0.203288989,1006,0
38077,0.89,-9.8,-2.55,0.09,0.08,0.51,10.16536276,0.5240229,0.104622229,0.182701937,1001,0
39083,1.65,-9.93,-3.05,-0.21,0.2,-0.3,10.51807492,0.417252921,0.352712161,-0.106769979,1006,0
40084,3.7,-9,-1.07,0.19,0.86,-0.34,9.789530122,0.94408686,-0.728544797,0.52683394,1001,0
41090,2.45,-8.7,1.41,-0.7,0.82,0.43,9.147710096,1.160732527,-0.641820026,0.216645667,1006,0
42091,-0.62,-9.84,0.31,-0.29,-0.16,-0.07,9.864385434,0.338526218,0.716675339,-0.82220631,1001,0
43097,3.82,-9.18,0.82,0.92,-1,0.77,9.976833165,1.561825855,0.11244773,1.223299637,1006,0
44098,3.32,-9.55,-1.53,0.03,-0.73,-0.04,10.22574203,0.731710325,0.248908862,-0.830115529,1001,0
45104,-1.01,-9.51,-0.33,-1.39,0.38,1.24,9.569174468,1.901078641,-0.656567559,1.169368316,1006,0
46105,4,-10.21,-2.55,0.32,-0.3,0.07,11.25817925,0.444184646,1.689004781,-1.456893995,1001,0
47111,5.27,-8.52,-1.7,-0.27,-0.16,0.19,10.1613631,0.366878727,-1.096816151,-0.07730592,1006,0
48112,0.44,-7.98,-2.46,0.67,0.12,-0.59,8.362152833,0.900777442,-1.799210265,0.533898715,1001,0
50118,-1.94,-9.67,-1.18,0,-0.08,0.53,9.933020689,0.536003731,1.570867856,-0.364773711,2006,0
51124,-1.31,-8.77,-1.82,-0.31,-0.07,0.23,9.052148916,0.392300905,-0.880871772,-0.143702826,1006,0
52125,1.07,-10.06,-1.99,0.1,-0.27,-0.03,10.31060619,0.289482297,1.258457274,-0.102818608,1001,0
53131,1.01,-9.87,-3.04,-0.19,-0.26,0,10.37682996,0.322024844,0.066223769,0.032542547,1006,0
54132,-0.71,-9.95,-3.83,0.14,0.33,0.28,10.68529363,0.454862617,0.308463673,0.132837773,1001,0
55138,0.46,-8.48,2.18,0.35,0.65,0.1,8.767804742,0.744983221,-1.91748889,0.290120605,1006,0
56139,-5.37,-8.14,-1.76,0.95,0.73,0.9,9.909293618,1.498465882,1.141488875,0.753482661,1001,0
57145,-5.65,-8.31,-4.61,0.35,1.05,-0.13,11.05579938,1.114405671,1.146505766,-0.384060211,1006,0
58146,-4.67,-8.7,-4.04,-0.79,-0.69,-0.09,10.66866908,1.052758282,-0.3871303,-0.061647389,1001,0
59152,-4.38,-8.22,-1.95,-0.99,-1.41,-0.53,9.516054855,1.802526005,-1.152614228,0.749767724,1006,0
60153,-2.92,-8.53,-1.77,-0.5,-0.31,0.45,9.188046582,0.740675367,-0.328008272,-1.061850638,1001,0
61159,-5.82,-6.99,-1.51,0.96,0.43,-1.03,9.220227763,1.472209224,0.032181181,0.731533857,1006,0
62160,-5.91,-7.13,-0.78,1.28,2.49,-0.14,9.293729069,2.80323028,0.073501306,1.331021055,1001,0
63166,-3.55,-9.42,-2.14,-0.31,-0.57,0.21,10.29167139,0.681982404,0.997942321,-2.121247875,1006,0
64167,-2.74,-8.14,1.28,-0.65,-0.22,-0.63,8.68363979,0.931557835,-1.6080316,0.249575431,1001,0
65173,-1.77,-9.78,-2.75,-0.13,-0.24,-0.09,10.31231303,0.287402157,1.628673239,-0.644155678,1006,0
66174,-1.85,-10.06,-2.13,-0.32,-0.36,0.26,10.44810988,0.547357287,0.135796848,0.25995513,1001,0
67180,0.79,-9.71,-3.57,0.32,0.46,-0.52,10.37560119,0.764460594,-0.07250869,0.217103307,1006,0
68181,1.34,-9.54,-1.28,0.12,0.35,-0.12,9.718312611,0.388973007,-0.657288577,-0.375487587,1001,1
69187,0.17,-5.17,5.65,0.79,-0.02,-0.08,7.660306782,0.794292138,-2.058005828,0.405319131,1006,1
70188,0.19,-2.01,7.89,0.31,0.2,0.17,8.144218808,0.40620192,0.483912026,-0.388090217,1001,1
71194,1.4,-0.96,6.7,0.29,0,-0.1,6.911700225,0.306757233,-1.232518583,-0.099444687,1006,1
72195,0.66,-0.47,7.21,-0.04,-0.05,0.88,7.255384208,0.88232647,0.343683983,0.575569237,1001,1
83226,0.97,-0.73,7.69,-0.03,-0.37,-0.33,7.785236027,0.496689038,0.52985182,-0.385637433,11031,0
84227,2.7,-4.77,5.62,-0.53,-0.32,0.2,7.850305727,0.650615094,0.065069699,0.153926056,1001,0
86233,4.21,-9.22,0.49,-0.14,0.17,-0.96,10.14754157,0.984936546,2.297235848,0.334321453,2006,0
87239,1.54,-7.59,3.59,0.1,0.16,0.02,8.53626382,0.18973666,-1.611277754,-0.795199887,1006,0
88240,0.59,-7.61,3.99,0.15,-0.01,0.05,8.612798616,0.158429795,0.076534796,-0.031306864,1001,0
89246,0.49,-7.25,4.59,-0.03,-0.11,0,8.594806571,0.114017543,-0.017992045,-0.044412253,1006,0
90247,0.45,-6.08,5.5,-0.07,0.03,-0.03,8.21090129,0.081853528,-0.383905281,-0.032164015,1001,0
91253,-0.01,-5.93,5.27,0.04,0,-0.1,7.933341036,0.107703296,-0.277560254,0.025849768,1006,0
92254,-1.05,-6.66,4.6,0.22,-0.12,-0.06,8.161991179,0.257681975,0.228650142,0.149978678,1001,0
93260,0.03,-5.92,6.43,0.13,-0.32,-0.1,8.740263154,0.359583092,0.578271975,0.101901117,1006,0
94261,-0.01,-5.08,5.28,-0.02,0.09,0.02,7.326998021,0.094339811,-1.413265133,-0.265243281,1001,0
95267,0.95,-4.24,4.97,-0.78,-0.3,-0.12,6.601590717,0.844274837,-0.725407304,0.749935025,1006,0
96268,-2.13,-5.89,5.79,0.12,0.4,0.82,8.529542778,0.920217366,1.927952061,0.075942529,1001,0
97274,-2.26,-10.77,-0.8,-1.43,-0.03,0.97,11.03360775,1.728207164,2.504064973,0.807989798,1006,0
98275,-2.14,-9.17,-2.18,-0.01,1.42,0.02,9.665448774,1.420176045,-1.368158977,-0.308031118,1001,0
99281,-2.77,-11.54,-1.35,-0.7,-0.39,0.75,11.9443292,1.09754271,2.278880425,-0.322633336,1006,0
100282,-3.69,-7.8,-3.25,-0.11,-0.59,0.76,9.220553129,0.968400743,-2.72377607,-0.129141966,1001,0
101288,-3.79,-8.59,-2.04,0.03,0.42,-0.35,9.608007077,0.547539953,0.387453949,-0.420860791,1006,0
102289,-1.87,-9.51,-2.08,-0.15,0.07,-0.19,9.912789718,0.251992063,0.304782641,-0.29554789,1001,0
103295,-0.97,-9.94,-2.21,0.09,0.47,0.13,10.22881225,0.495883051,0.316022529,0.243890987,1006,0
104296,-0.96,-9.96,-4.62,-0.21,-0.38,0.09,11.02123405,0.443395986,0.792421803,-0.052487065,1001,0
105302,-2.12,-9.38,-3.03,-0.4,-0.93,-0.08,10.0826435,1.015529419,-0.938590548,0.572133433,1006,0
106303,-2.13,-9.86,-3.33,-0.21,-0.25,0.06,10.62287155,0.331963853,0.540228049,-0.683565565,1001,0
107309,-2.79,-9.28,-3.1,-0.11,0.17,0.32,10.1741093,0.378681925,-0.448762254,0.046718071,1006,0
108310,-4.46,-8.47,-3.43,0.04,0.21,0.01,10.16845121,0.214009346,-0.005658088,-0.164672579,1001,0
109316,-2.25,-8.96,-3.91,-0.06,0.09,-0.09,10.0315602,0.140712473,-0.136891012,-0.073296873,1006,0
110317,-1.53,-9.42,-5.72,-0.02,0.09,-0.31,11.1263516,0.323419233,1.094791406,0.18270676,1001,1
111323,-1.22,-6.85,-8.55,-1.39,0.11,1.74,11.02331166,2.22975335,-0.103039941,1.906334117,1006,1
112324,-0.91,-3.98,-11.41,-0.34,0.1,-0.19,12.11844049,0.402119385,1.095128832,-1.827633964,1001,1
113330,1.35,-2.69,-11.58,-0.64,0.29,0.23,11.96473986,0.739324016,-0.15370063,0.33720463,1006,1
114331,1.42,-2.19,-12.2,-0.02,-0.11,0.01,12.47607711,0.112249722,0.511337244,-0.627074294,1001,1
115337,1.15,-2.86,-12.28,0.02,-0.03,-0.11,12.66098337,0.115758369,0.184906266,0.003508647,1006,1
116338,1.41,-2.8,-12.31,-0.08,-0.05,-0.03,12.70292092,0.098994949,0.04193755,-0.01676342,1001,1
117344,0.22,-3.62,-10.16,-0.43,2.78,0.51,10.78788209,2.858915878,-1.915038833,2.759920929,1006,1
118345,0.8,-2.62,-12.4,-0.05,-0.35,-0.3,12.69899209,0.463680925,1.911109995,-2.395234954,1001,1
119351,-1.26,-6.79,-5.38,0.87,0.27,0.47,8.754204704,1.025036585,-3.944787382,0.56135566,1006,0
120352,-3.73,-4.46,-3.04,-1.1,-0.23,0.26,6.560952675,1.153473017,-2.193252029,0.128436432,1001,0
121358,-4.52,-8.32,-4.14,0.16,0,-0.12,10.33404084,0.2,3.773088161,-0.953473017,1006,0
122359,-5.71,-9.06,-3.1,-0.33,-0.93,0.83,11.14888784,1.28945725,0.814847001,1.08945725,1001,0
123365,-4.78,-7.41,2.25,0.68,0.02,0.12,9.100494492,0.690796642,-2.048393345,-0.598660609,1006,0
124366,-5.44,-7.97,-2.14,-0.33,1.37,-0.47,9.884032578,1.48549655,0.783538086,0.794699908,1001,0
125372,-4.38,-9.14,-3.25,0.3,0.65,-0.41,10.64361311,0.824984848,0.75958053,-0.660511702,1006,0
126373,-2.71,-8.73,-3.31,-0.14,0.85,-0.19,9.721784816,0.882156449,-0.921828293,0.0571716,1001,0
127379,0.67,-9.33,-6.61,0.78,0.73,1.01,11.45381596,1.470170058,1.732031142,0.588013609,1006,0
128380,-3.55,-8.41,-2.55,-0.09,-0.76,-1.35,9.478032496,1.55183762,-1.975783462,0.081667562,1001,0
129386,-3.23,-9.76,-3.84,-0.35,-1.39,-0.31,10.97433825,1.466526508,1.496305753,-0.085311112,1006,0
130387,-0.02,-9.53,-2.66,-0.25,-0.96,0,9.89428623,0.992018145,-1.080052019,-0.474508363,1001,0
131393,-1.17,-10.26,-4.92,-0.37,0,-0.3,11.43865814,0.476340215,1.544371908,-0.51567793,1006,0
132394,-1.83,-9.09,-2.48,0.58,0.02,-0.82,9.598301933,1.004589468,-1.840356205,0.528249254,1001,0
133400,-0.8,-9.61,-5.99,0.13,-0.09,0.07,11.35218922,0.172916165,1.753887283,-0.831673304,1006,0
134401,-0.89,-9.42,-4.24,-0.29,-0.98,-0.04,10.36851484,1.022790301,-0.983674376,0.849874136,1001,0
135407,-1.59,-10.48,-2.56,0.68,0.06,0.29,10.90468248,0.741687266,0.53616764,-0.281103035,1006,0
136408,-0.63,-9.96,-5.28,-0.13,-0.05,0.17,11.29056686,0.21977261,0.385884379,-0.521914656,1001,0
137414,1.17,-9.43,-5.55,0.13,0.71,0.24,11.0043764,0.76065761,-0.286190457,0.540885,1006,0
138415,-0.67,-9.86,-4.47,-0.14,-0.33,0.1,10.84663081,0.372155881,-0.157745589,-0.388501729,1001,0
139421,-1.51,-9.37,-5.04,-0.22,-0.5,0.2,10.74609697,0.581721583,-0.100533847,0.209565702,1006,0
140422,-1.41,-10.15,-3.66,-0.05,0.43,-0.22,10.8814613,0.485592422,0.135364333,-0.096129161,1001,0
141428,-0.86,-9.66,-2.86,-0.11,0.07,-0.49,10.11112259,0.507050293,-0.77033871,0.021457872,1006,0
142429,-1.27,-10.58,-4.23,-0.25,0.33,0.55,11.46482446,0.688403951,1.353701876,0.181353658,1001,0
143435,-1.89,-9.5,-1.89,-0.41,-0.93,0.12,9.868849984,1.02342562,-1.595974481,0.335021669,1006,0
144436,1.4,-9.34,-5.32,-1.78,-0.24,0.33,10.83964944,1.826170857,0.970799457,0.802745237,1001,0
145442,2.6,-10.75,-3.94,-0.18,0.23,0.31,11.74078788,0.425910789,0.901138437,-1.400260069,1006,0
146443,1.17,-10.13,-3.97,0.1,0.41,0.09,10.94288353,0.43150898,-0.797904346,0.005598191,1001,0
147449,0.79,-9.06,-4.33,0.21,-0.77,-0.02,10.0725667,0.798373346,-0.870316829,0.366864366,1006,0
148450,1.72,-9.96,-5.59,-0.37,0.99,-0.37,11.55024242,1.119776763,1.477675718,0.321403417,1001,0
149456,1.38,-9.73,-5.29,0.07,0.15,0.13,11.16070786,0.210475652,-0.389534559,-0.909301112,1006,0
150457,1.36,-11.1,-4.28,-0.15,0.17,0.15,11.97405529,0.271845544,0.813347423,0.061369893,1001,0
151463,-0.45,-9.93,-5.26,0.26,-0.41,-0.01,11.24611044,0.485592422,-0.727944848,0.213746877,1006,0
152464,1.45,-9.5,-5.08,-0.28,0.59,0.15,10.870092,0.670074623,-0.376018443,0.184482201,1001,0
153470,1.39,-9.65,-5.46,0.07,-0.14,-0.06,11.17435457,0.167630546,0.304262572,-0.502444077,1006,0
154471,0.39,-9.73,-4.36,0.03,-0.39,-0.26,10.66932988,0.469680743,-0.505024692,0.302050196,1001,0
155477,0.59,-9.61,-3.86,0.11,-0.06,0.12,10.37303234,0.173493516,-0.296297532,-0.296187227,1006,0
156478,-0.21,-9.4,-3.5,-0.2,-0.09,-0.3,10.03265169,0.371618084,-0.34038065,0.198124568,1001,1
157484,5.8,-8.3,1.08,-0.1,-0.86,0.12,10.18314293,0.874070935,0.15049124,0.502452852,1006,1
159490,5.46,-5.61,4.13,-0.07,0,0.04,8.85102254,0.080622577,-1.332120394,-0.793448358,2006,1
160491,6.04,-5.72,1.48,-0.1,0,0.1,8.449283993,0.141421356,-0.401738546,0.060798779,1001,1
161497,6.08,-6.1,3.11,-0.04,-0.03,-0.03,9.156882657,0.058309519,0.707598664,-0.083111837,1006,1
168513,5.69,-5.16,4.05,0.02,-0.17,-0.11,8.683559178,0.203469899,-0.473323479,0.145160381,7016,1
169519,8.01,-6.65,-5.83,-0.04,-1.81,-0.34,11.9319529,1.842091203,3.248393722,1.638621303,1006,1
170520,8.71,-3.8,-6.76,-0.46,-0.14,0.17,11.66197668,0.51,-0.269976223,-1.332091203,1001,0
171526,-0.5,-9.98,-1.8,0.82,1.25,-0.18,10.15334428,1.505755624,-1.5086324,0.995755624,1006,0
172527,-2.39,-9.25,-0.79,-0.16,-0.38,0.23,9.586380965,0.472122865,-0.566963312,-1.033632759,1001,0
173533,-1.24,-9.64,-0.77,0.07,-0.03,0.23,9.749876922,0.242280829,0.163495958,-0.229842037,1006,0
174534,-2.82,-8.65,0.4,0.05,0.04,-0.93,9.106860052,0.932201695,-0.643016871,0.689920866,1001,0
175540,0.3,-10.1,-2.04,-0.2,-0.11,0.06,10.30832673,0.236008474,1.20146668,-0.69619322,1006,0
176541,0.31,-9.71,-0.99,-0.06,-0.11,0.18,9.765259853,0.219317122,-0.543066878,-0.016691352,1001,0
177547,-1.21,-10.5,-1.89,-0.43,-0.18,-0.27,10.73714115,0.538702144,0.971881293,0.319385022,1006,0
178548,0.68,-9.57,-1.15,-0.02,-0.29,-0.64,9.662804976,0.702922471,-1.074336171,0.164220327,1001,0
179554,-0.28,-9.87,-1.27,-0.08,-0.22,0.34,9.955310141,0.412795349,0.292505165,-0.290127122,1006,0
180555,2.04,-9.73,-0.68,-0.22,-0.25,-0.08,9.964782988,0.342490876,0.009472847,-0.070304473,1001,0
181561,-1.77,-9.79,-1.88,-0.15,-0.51,0.4,10.12479136,0.665281895,0.160008368,0.322791019,1006,0
182562,1.87,-10,-3.35,-0.2,0.19,0.42,10.71071426,0.502493781,0.585922906,-0.162788114,1001,0
183568,-0.78,-10.07,-3.26,-0.02,-0.28,0.07,10.61324173,0.289309523,-0.097472533,-0.213184258,1006,0
184569,2.02,-10.14,-3.11,-0.4,0.08,-0.2,10.79685602,0.454312668,0.183614295,0.165003145,1001,0
185575,1.91,-10.25,-2.08,-0.19,-0.2,-0.12,10.631886,0.300832179,-0.16497002,-0.153480489,1006,0
186576,0.66,-9.77,-2.12,-0.16,-0.07,0.19,10.01912671,0.258069758,-0.612759295,-0.042762421,1001,0
187582,1.9,-10.03,-1.02,-0.57,-0.52,0.38,10.25920562,0.860058138,0.240078914,0.60198838,1006,0
188583,0.76,-11.57,-5.41,-0.7,-0.49,-0.43,12.79494431,0.956556323,2.535738692,0.096498186,1001,0
189589,1.08,-9.72,-4.57,-0.28,0.17,0.22,10.79489231,0.394588393,-2.000052003,-0.56196793,1006,1
190590,1.35,-9.41,-2.77,0.67,0.03,0.12,9.901691775,0.681322244,-0.893200536,0.286733851,1001,1
193601,0.83,-0.56,7.36,-0.06,0.35,0.06,7.427792404,0.360138862,-2.47389937,-0.321183382,3011,1
207637,0.04,-1.09,7.67,-0.09,0.06,-0.17,7.747167224,0.201494417,0.31937482,-0.158644445,14036,0
208638,-0.39,-7.53,-1.36,-0.93,-0.32,0.74,7.661762199,1.23081274,-0.085405025,1.029318323,1001,0
209644,-0.89,-10.55,-1.97,-0.18,0.09,-0.03,10.76919217,0.203469899,3.107429971,-1.02734284,1006,0
210645,-0.76,-10.65,-2.1,-0.09,-0.11,-0.26,10.8816405,0.296310648,0.112448331,0.092840748,1001,0
211651,-1.35,-10.46,-0.31,0.59,0.26,0.06,10.55131271,0.647533783,-0.330327787,0.351223135,1006,0
212652,-0.55,-10.23,-3.15,-0.29,-0.21,-0.27,10.71811084,0.448441746,0.166798126,-0.199092036,1001,0
213658,-0.83,-10.11,-5.75,-0.37,0.17,0.02,11.66033876,0.407676342,0.942227919,-0.040765404,1006,0
214659,-0.22,-9.87,-3.85,0.06,0.03,-0.07,10.59659379,0.096953597,-1.063744968,-0.310722745,1001,0
215665,0.12,-9.38,-1.53,-0.33,-0.14,-0.15,9.50471988,0.388587185,-1.091873912,0.291633587,1006,0
216666,-0.96,-9.44,-3.63,-1.23,0.31,0.5,10.15933561,1.363451503,0.654615728,0.974864318,1001,0
217672,-0.39,-7.68,2.33,-0.91,0.83,-0.72,8.035135344,1.426674455,-2.124200264,0.063222952,1006,0
218673,-0.29,-8.3,3.18,-0.03,1.32,0.32,8.893059091,1.35856542,0.857923747,-0.068109035,1001,0
219679,-4.18,-9.84,-2.6,-0.26,-0.18,-0.55,11.00263605,0.634428877,2.109576957,-0.724136543,1006,0
220680,-0.08,-9.98,-1.94,0.17,-0.29,0.01,10.16712349,0.336303434,-0.835512561,-0.298125443,1001,0
221686,2.02,-10.29,-2.32,-0.43,-1.62,-0.69,10.73996741,1.81256724,0.572843924,1.476263806,1006,0
222687,1.78,-10.05,-3.94,0.53,0.28,-0.01,10.94049816,0.599499791,0.200530749,-1.213067449,1001,0
223693,2.82,-10.11,-3.14,0.05,0.02,0.09,10.9555511,0.104880885,0.015052944,-0.494618907,1006,0
224694,0.54,-10.39,-3.94,-0.17,-0.4,0.14,11.12507528,0.456618002,0.169524176,0.351737117,1001,0
225700,1.9,-9.59,-4.34,0.34,0.19,0.04,10.69643399,0.391535439,-0.428641295,-0.065082563,1006,0
226701,1.93,-9.88,-4.13,0.01,-0.13,0.01,10.88100179,0.130766968,0.184567807,-0.260768471,1001,0
227707,2.39,-10.02,-3.78,0.28,0.29,-0.02,10.97273439,0.403608721,0.091732598,0.272841753,1006,0
228708,1.79,-9.73,-2.55,-0.27,0.07,-0.27,10.2166286,0.388200979,-0.756105788,-0.015407743,1001,1
229714,3.54,-8.27,-3.32,0.21,0.27,0.74,9.588894618,0.815230029,-0.627733984,0.42702905,1006,1
230715,-8.92,-6.62,-3.87,0.06,-0.13,1.34,11.76298006,1.347627545,2.174085446,0.532397516,1001,1
232721,-9.14,-0.39,-3.34,-0.04,-0.05,0.01,9.73895785,0.064807407,-2.024022215,-1.282820138,2006,1
233727,-9.26,-0.4,-3.46,-0.04,-0.12,0.01,9.893391734,0.126885775,0.154433884,0.062078368,1006,1
239743,-10.07,-1.41,-2.78,-0.28,-0.15,-0.55,10.54141357,0.63513778,0.648021834,0.508252005,6016,0
241749,0.03,-10.59,-2.61,0.16,0.12,0.24,10.90692899,0.312409987,0.365515423,-0.322727793,2006,0
242750,1.81,-9.98,-1.96,0.6,-0.44,-0.12,10.3304453,0.753657747,-0.576483695,0.44124776,1001,0
243756,0.16,-10.11,-3.65,-0.3,0.08,-0.18,10.74989302,0.358887169,0.419447727,-0.394770578,1006,0
244757,0.07,-10.15,-3.54,-0.32,-0.51,-0.05,10.74983721,0.604152299,-5.58E-05,0.24526513,1001,0
245763,1.48,-10.24,-4.48,-0.19,-0.16,-0.07,11.2746796,0.258069758,0.524842388,-0.346082541,1006,0
246764,1.25,-9.63,-2.74,0.34,-0.38,0.04,10.08994549,0.511468474,-1.184734106,0.253398716,1001,0
247770,0.53,-10.14,-4.11,-0.33,0.53,-0.29,10.95411338,0.688403951,0.864167892,0.176935477,1006,0
248771,1.08,-9.89,-4.18,-0.35,0.54,0.04,10.79124182,0.644748013,-0.162871563,-0.043655938,1001,0
249777,1.36,-9.43,-4.9,0.13,-0.85,0.16,10.71375284,0.874642784,-0.077488975,0.229894771,1006,0
250778,1.53,-10.68,-3.78,-0.16,0.18,-0.03,11.43204706,0.242693222,0.718294217,-0.631949562,1001,0
251784,0.61,-9.63,-4.05,-0.39,0.37,-0.17,10.46477425,0.563826214,-0.967272816,0.321132992,1006,0
252785,1.79,-10.28,-4.46,-0.07,-0.1,-0.05,11.34786764,0.13190906,0.883093396,-0.431917155,1001,0
253791,0.68,-9.81,-2.84,0.35,-0.72,0.26,10.23543355,0.84172442,-1.112434089,0.709815361,1006,0
254792,3.11,-8.92,-5.09,-0.24,-0.49,-0.01,10.73063838,0.545710546,0.495204826,-0.296013874,1001,0
255798,1.06,-10.07,-3.61,-0.62,0.46,-1.21,10.74991163,1.435304846,0.01927325,0.8895943,1006,0
256799,2.17,-10.29,-4.37,-0.28,0.58,0.16,11.38814735,0.663626401,0.63823572,-0.771678445,1001,0
257805,-0.56,-10.72,-3.27,0.35,-0.82,0.14,11.22162644,0.902496537,-0.166520905,0.238870136,1006,0
258806,0.71,-9.84,-4.78,-0.22,-0.53,0.03,10.96257725,0.574630316,-0.25904919,-0.327866221,1001,0
259812,-0.31,-10.31,-2.99,0.16,0.36,0.3,10.73928769,0.495176736,-0.223289566,-0.07945358,1006,1
260813,-7.34,-7.33,-3.49,-0.91,0.85,2.36,10.94461511,2.668370289,0.205327428,2.173193553,1001,1
262819,-8.82,-0.36,-0.25,-0.39,0.08,0.11,8.830883308,0.413037529,-2.113731806,-2.255332761,2006,1
263825,-9.19,-0.35,-3.3,0.05,0.25,0.01,9.770803447,0.255147016,0.939920139,-0.157890512,1006,1
264826,-9.16,-0.28,-3.35,-0.04,-0.21,0,9.757381821,0.213775583,-0.013421626,-0.041371433,1001,1
267837,-11.51,0.06,-1.35,0.17,-0.63,0.16,11.58905518,0.671863081,1.831673361,0.458087498,3011,0
268838,-4.36,-7.18,-2.33,-1.02,0.16,-0.94,8.717275951,1.396280774,-2.871779231,0.724417693,1001,0
269844,-1.01,-9.55,-4.66,-0.22,0,-0.48,10.67418381,0.528015151,1.956907859,-0.868265623,1006,0
270845,0.01,-10.24,-3.99,-0.09,0.02,0.14,10.98989536,0.167630546,0.315711549,-0.360384605,1001,0
271851,-0.9,-10.2,-2.35,-0.38,-0.39,0.28,10.50583171,0.612290781,-0.484063645,0.444660234,1006,0
272852,-1.02,-10.2,-1.32,0.33,0.37,0.02,10.3355116,0.496185449,-0.170320115,-0.116105331,1001,0
273858,-2.6,-10.04,-2.71,-0.19,0.5,0.33,10.71940763,0.628490254,0.383896035,0.132304805,1006,0
274859,-0.77,-10.27,-3.47,0,0.26,-0.09,10.86769065,0.27513633,0.148283014,-0.353353925,1001,0
275865,-0.58,-10.14,-3.23,0.09,0.06,0.06,10.65780934,0.123693169,-0.209881304,-0.151443161,1006,0
276866,-0.18,-9.92,-3.12,-0.02,0.02,0.05,10.4006346,0.057445626,-0.257174747,-0.066247542,1001,0
277872,-0.82,-10.29,-3.23,-0.23,0.09,-0.07,10.81616383,0.256709953,0.415529234,0.199264327,1006,0
278873,-0.3,-10.29,-2.81,-0.12,-0.19,-0.09,10.67099808,0.242074369,-0.145165751,-0.014635584,1001,0
279879,0.05,-9.56,-2.83,-0.2,-0.26,0.03,9.970205615,0.329393382,-0.700792464,0.087319013,1006,0
280880,0.47,-10.31,-4.62,0.06,-0.48,-0.33,11.30758153,0.585576639,1.337375913,0.256183257,1001,0
281886,-1.19,-9.97,-4.09,0.08,-0.4,0.11,10.8418218,0.422492603,-0.465759725,-0.163084035,1006,0
282887,-2.16,-10.19,-4,0.45,-0.26,-0.93,11.15803298,1.065363788,0.316211178,0.642871184,1001,0
283893,-1.69,-10.08,-3.77,-0.26,-0.17,1.1,10.89382394,1.143022309,-0.264209042,0.077658522,1006,0
284894,-2.84,-10.22,-2.23,-0.11,0.21,0.04,10.83913742,0.240416306,-0.054686519,-0.902606004,1001,0
285900,-2.76,-9.41,-3.75,-0.22,0.11,0.09,10.49896185,0.261916017,-0.340175566,0.021499711,1006,0
286901,-1.81,-9.42,-3.05,0.16,-0.55,-0.06,10.06553526,0.575934024,-0.433426597,0.314018007,1001,0
287907,-1.76,-9.96,-1.34,-0.15,-0.62,-0.22,10.20268592,0.674759216,0.137150664,0.098825192,1006,0
288908,-2.37,-10.31,-0.47,0.27,0.29,0,10.58932953,0.396232255,0.386643614,-0.278526961,1001,0
289914,-1.64,-4,2.68,1.28,-0.45,0.9,5.086452595,1.628158469,-5.50287694,1.231926214,1006,0
290915,-5.69,-7.44,-4.35,-0.06,-0.17,-0.54,10.3272552,0.569297813,5.240802607,-1.058860656,1001,0
291921,-6.62,-8.2,3.14,-0.61,-0.85,-0.08,10.99654491,1.049285471,0.66928971,0.479987658,1006,0
292922,-0.74,-7.06,-8.38,-0.37,-1.43,-0.29,10.98251337,1.50529067,-0.014031538,0.456005198,1001,0
293928,-0.74,-8.79,-4.18,0.87,0.56,-0.17,9.761357488,1.04852277,-1.221155886,-0.456767899,1006,0
295934,4.88,-7.93,1.2,0.3,0.51,0.22,9.388253299,0.631268564,-0.373104189,-0.417254206,2006,0
296935,4.4,-8.71,0.64,0.28,0.01,0.09,9.779248437,0.294278779,0.390995139,-0.336989785,1001,0
297941,4.95,-8.5,-0.44,-0.47,0.17,-0.71,9.846121064,0.86827415,0.066872626,0.573995371,1006,0
298942,9.41,-3.05,-2.59,-0.64,0.31,0.29,10.22539486,0.767984375,0.379273794,-0.100289775,1001,0
299948,8.68,-8.32,-3.04,-0.33,-0.25,0.97,12.40187083,1.054656342,2.176475969,0.286671967,1006,0
302954,1.54,-0.86,-12.52,-0.04,-0.04,0,12.64363872,0.056568542,0.24176789,-0.9980878,3006,0
311980,1.84,-0.66,-13.57,0.04,0.03,-0.16,13.71007294,0.167630546,1.066434223,0.111062004,9026,0
312981,-0.79,-9.73,-1.59,2.37,-0.03,0.17,9.890657208,2.376278603,-3.819415732,2.208648057,1001,0
313987,3.05,-6.34,3.86,-0.48,0.36,-1.38,8.024817755,1.504792344,-1.865839453,-0.871486259,1006,0
314988,1.03,-0.73,7.55,-0.47,0.51,0.38,7.65482201,0.790822357,-0.369995745,-0.713969988,1001,0
315994,0.5,-0.53,7.1,-0.03,-0.02,0,7.137289401,0.036055513,-0.517532608,-0.754766844,1006,0
316995,0.49,-0.45,7.19,-0.04,-0.03,0,7.220713261,0.05,0.08342386,0.013944487,1001,0
585666,-1.54,-0.49,7.35,-0.16,3.19,0.21,7.525569746,3.200906122,0.304856485,3.150906122,268671,0
586672,-8.39,-0.71,0.28,-0.37,0.45,1.1,8.424642426,1.244748971,0.89907268,-1.956157151,1006,0
587673,-5.87,2.76,1.27,-0.9,-0.8,-0.42,6.609644469,1.275303885,-1.814997957,0.030554915,1001,0
589679,-2.4,2.71,4.15,0.43,1.08,-0.88,5.506959234,1.457978052,-1.102685235,0.182674167,2006,0
590685,-8.85,1.4,-0.05,0.85,-0.55,-0.66,8.96018973,1.208552854,3.453230497,-0.249425198,1006,0
591686,-8.04,1.48,1.14,0.54,-1.38,0.85,8.254186816,1.708361788,-0.706002914,0.499808935,1001,0
592692,-4.59,-0.59,4.5,0.59,-0.61,0.98,6.454936096,1.296379574,-1.799250721,-0.411982214,1006,0
593693,-2.73,-1.22,6.76,-0.73,-1.36,1.17,7.391813039,1.936853118,0.936876943,0.640473544,1001,0
594699,-5.13,-6.48,2.78,-0.96,-1.8,-0.87,8.719845182,2.217769149,1.328032143,0.280916032,1006,0
596705,-2.55,-9.58,-0.96,-0.58,0.18,-0.21,9.959944779,0.642572953,1.240099597,-1.575196196,2006,0
597706,-6,-7.77,-2.52,0.07,0.12,0.42,10.13525037,0.442379927,0.175305588,-0.200193026,1001,0
598712,-6.32,-8.13,-3.25,-0.93,-0.31,0.3,10.79823134,1.025182911,0.66298097,0.582802983,1006,0
599713,-5.45,-8.86,-3,-0.64,-0.92,1.07,10.82599187,1.549483785,0.027760535,0.524300874,1001,0
600719,-5.59,-7.99,-3.5,0.25,0.25,-0.34,10.36041505,0.490509939,-0.465576822,-1.058973846,1006,0
601720,-4.45,-8.57,-4.41,0.15,0.4,0.02,10.61581368,0.427668096,0.255398626,-0.062841843,1001,1
602726,-3.05,-9.43,-4.43,-0.08,-0.02,-0.06,10.85597992,0.10198039,0.240166243,-0.325687705,1006,1
603727,-2.62,-9.13,-3.9,-0.2,-0.49,0.17,10.26797448,0.555877684,-0.588005435,0.453897294,1001,1
604733,-3.71,-8.7,-3.95,-0.69,-0.48,-0.26,10.24971219,0.879829529,-0.018262293,0.323951845,1006,1
605734,-0.28,-7.45,-6.73,0.08,0.34,0.08,10.04359497,0.358329457,-0.206117217,-0.521500072,1001,1
606740,1.93,-9.19,-5.5,0,0.22,0.14,10.88260079,0.260768096,0.839005818,-0.097561361,1006,1
607741,1.33,-9.55,-6.02,0,-0.08,-0.02,11.36713684,0.082462113,0.484536051,-0.178305984,1001,1
608747,0.59,-9.38,-6.05,-0.05,0.09,0.04,11.17743262,0.11045361,-0.189704222,0.027991498,1006,1
609748,0.78,-9.27,-6.4,-0.11,-0.19,-0.04,11.29164736,0.223159136,0.114214734,0.112705526,1001,1
610754,0.73,-9.25,-6.26,-0.04,-0.11,-0.06,11.19298888,0.131529464,-0.098658478,-0.091629672,1006,1
615765,0.32,-9.03,-7.24,-0.05,0.09,0.04,11.57846708,0.11045361,0.385478206,-0.021075854,5011,1
621781,-0.41,-9.61,-8.43,-0.2,0.27,-0.02,12.79003909,0.336600654,1.21157201,0.226147043,6016,1
622787,-0.36,-10.84,-8.24,-0.38,-0.73,0.46,13.62104254,0.942814934,0.831003452,0.606214281,1006,0
623788,-4.38,-8.69,-5.25,0.13,0.07,0.49,11.05726006,0.511761663,-2.563782486,-0.431053271,1001,0
624794,-3.27,-9.95,-1.28,-1.56,1.27,-0.84,10.55148331,2.179931192,-0.50577675,1.668169528,1006,0
625795,-2.02,-7.45,-5.73,0.12,-0.54,-0.68,9.613313685,0.87658428,-0.938169623,-1.303346912,1001,0
626801,-0.84,-8.41,-7.37,-1.26,0.58,0.95,11.2138575,1.681219795,1.600543814,0.804635515,1006,0
627802,-0.11,-7.8,-8.71,-0.02,-0.04,-0.35,11.69257029,0.352845575,0.478712792,-1.32837422,1001,0
628808,-0.8,-8.2,-8.37,0.65,-1.26,-0.36,11.7446541,1.462771342,0.052083812,1.109925767,1006,0
629809,-2.12,-8.84,-5.89,-0.23,-0.15,-0.21,10.83199428,0.34568772,-0.912659827,-1.117083622,1001,0
630815,-0.68,-9.41,-6.56,-0.03,-0.46,-0.53,11.49104434,0.702424373,0.659050063,0.356736653,1006,0
631816,-1.64,-9.91,-6.6,-0.17,0.06,-0.33,12.0190557,0.376031914,0.528011364,-0.32639246,1001,0
632822,2.05,-8.45,-9.73,0.57,1.7,1.69,13.04905744,2.463939934,1.030001734,2.087908021,1006,0
633823,1.21,-10.22,-8.04,-0.96,-0.18,0,13.05963629,0.976729236,0.010578852,-1.487210699,1001,0
634829,1.64,-8.18,-7.9,-0.87,0.23,0.13,11.48964751,0.909230444,-1.569988775,-0.067498792,1006,0
635830,-1.89,-8.28,-10.28,0.59,-0.58,-1.05,13.33450037,1.336787193,1.844852851,0.427556749,1001,0
636836,-0.4,-7.16,-10.53,1.37,-0.05,-0.34,12.73995683,1.412444689,-0.594543537,0.075657496,1006,0
637837,-2.08,-7.25,-9.27,0.3,-0.37,-0.34,11.9508075,0.585234996,-0.789149325,-0.827209694,1001,0
638843,0.58,-9.8,-7.75,-0.28,1.01,0.12,12.50755372,1.054940757,0.556746214,0.469705761,1006,0
639844,0.57,-7.74,-9.6,-0.41,0.32,-0.34,12.34473572,0.621369455,-0.162817998,-0.433571301,1001,0
640850,0.18,-7.38,-9.14,0.19,-0.2,0.14,11.74888931,0.309354166,-0.595846411,-0.312015289,1006,0
641851,-1.8,-7.29,-8.76,-0.27,-0.85,-0.88,11.53783775,1.252916597,-0.211051557,0.943562431,1001,0
642857,1.7,-7.27,-10.38,0.37,0.37,0.3,12.78621523,0.603158354,1.248377481,-0.649758243,1006,0
643858,2.61,-6,-11.42,1.5,-0.69,-0.29,13.16162984,1.676365115,0.375414605,1.073206761,1001,0
644864,2.69,-7.53,-9.1,0.36,-0.16,0.02,12.11391762,0.394461658,-1.047712223,-1.281903457,1006,0
645865,2.4,-8.41,-9.11,0.44,0.28,0.8,12.62854703,0.954986911,0.514629411,0.560525252,1001,0
646871,1.77,-7.65,-8.37,0.39,-0.01,0.81,11.47659793,0.899055059,-1.151949099,-0.055931851,1006,0
647872,2.11,-7.42,-8.94,-0.13,0.62,0.06,11.80813702,0.636317531,0.331539097,-0.262737529,1001,0
648878,2.25,-7.73,-9.67,0.12,0.04,0.23,12.58269844,0.262488095,0.774561414,-0.373829436,1006,1
649879,0.82,-7.72,-9.52,-0.1,1.31,0.29,12.28418495,1.345436732,-0.298513484,1.082948637,1001,1
650885,3.16,-8.21,-7.89,-0.04,0.62,0.32,11.81701316,0.698856208,-0.467171796,-0.646580524,1006,1
651886,3.11,-9.17,-6.38,-0.06,-0.21,0.15,11.5959217,0.264952826,-0.221091462,-0.433903382,1001,1
652892,2.25,-9.25,-5.9,-0.17,0.09,-0.13,11.19977678,0.232163735,-0.396144913,-0.032789091,1006,1
653893,2.69,-9.39,-6.51,-0.01,0.19,-0.14,11.73832612,0.236220236,0.538549332,0.004056501,1001,1
654899,3.11,-9.14,-5.94,0.02,-0.12,-0.03,11.33557674,0.125299641,-0.402749377,-0.110920595,1006,1
658910,3.16,-8.76,-6.72,-0.02,0.01,-0.09,11.48397144,0.092736185,0.1483947,-0.032563456,4011,0
660916,3.3,-9.99,-6.97,-0.63,0,-0.04,12.62026149,0.631268564,1.136290049,0.538532379,2006,0
661917,1.47,-7.02,-8.52,-0.56,-0.74,-0.44,11.13695201,1.027034566,-1.48330948,0.395766002,1001,0
662923,4.22,-6.04,-9.62,-0.17,-0.05,0,12.1175245,0.177200451,0.980572493,-0.849834115,1006,0
663924,1.37,-7.28,-9.69,0.21,-0.08,0.09,12.1971882,0.242074369,0.079663701,0.064873917,1001,0
664930,0.48,-6.43,-8.61,-0.24,-0.16,-0.86,10.75673742,0.907083238,-1.440450777,0.665008869,1006,0
665931,0.71,-6.64,-11.33,0.65,0.12,0.47,13.15152463,0.811048704,2.394787203,-0.096034534,1001,0
666937,-0.35,-7.07,-8.83,0.21,0.07,-0.47,11.31708001,0.519519008,-1.834444614,-0.291529696,1006,0
667938,1.03,-8.92,-7.76,-0.17,0,-1.1,11.8678094,1.113058848,0.55072939,0.59353984,1001,0
668944,2.47,-8.32,-7.74,-0.46,0.74,0.36,11.62888215,0.9427619,-0.238927254,-0.170296948,1006,0
669945,2.56,-7.65,-9.2,-0.08,0.42,0.15,12.23585306,0.45310043,0.606970908,-0.48966147,1001,0
670951,3.35,-8.14,-8.31,0.59,-0.3,-0.17,12.10529636,0.683373983,-0.130556694,0.230273552,1006,0
671952,3.5,-7.71,-8.35,0.28,-0.66,-0.16,11.89187117,0.734574707,-0.213425188,0.051200724,1001,0
672958,2.97,-7.33,-7.86,-0.84,0.63,0.08,11.15030941,1.053043209,-0.74156176,0.318468502,1006,0
673959,2.08,-6.62,-9.85,0.59,-0.72,-0.29,12.04878832,0.974987179,0.898478908,-0.07805603,1001,0
674965,2.66,-7.47,-8.12,-0.95,0.76,0.2,11.34948898,1.232923355,-0.699299346,0.257936176,1006,0
675966,1.74,-6.94,-8.58,-0.38,-0.02,-0.14,11.17173218,0.405462699,-0.177756791,-0.827460657,1001,0
676972,2.3,-6.97,-8,-0.2,-0.55,-0.25,10.85683656,0.636396103,-0.314895629,0.230933404,1006,0
677973,2.87,-7.33,-9.76,0.1,-0.12,0.03,12.53887555,0.159059737,1.682038992,-0.477336366,1001,1
678979,-4.55,-7.12,-8.32,-1.58,2.37,-0.32,11.85830089,2.866304241,-0.680574658,2.707244503,1006,1
680985,-2.76,-7.87,-8.77,-0.25,0.74,-0.23,12.10237167,0.814248119,0.244070778,-2.052056121,2006,1
681986,-1.73,-8.08,-9.21,-0.13,-0.18,-0.09,12.37349587,0.239582971,0.2711242,-0.574665148,1001,1
682992,-1.97,-7.94,-8.4,-0.03,-0.12,-0.01,11.72537846,0.124096736,-0.648117409,-0.115486235,1006,1
683993,-1.94,-7.75,-8.69,-0.03,-0.09,-0.03,11.80432971,0.099498744,0.078951255,-0.024597993,1001,1
687004,-2.33,-8.61,-8.49,0.19,-0.13,0.02,12.31426409,0.2310844,0.509934373,0.131585656,3011,0
688005,-3.21,-7.42,-6.62,0.27,-0.54,0.49,10.44915786,0.777560287,-1.865106226,0.546475887,1001,0
689011,-6.39,-5.83,-5.29,-0.78,0.33,0.16,10.13928498,0.861916469,-0.309872876,0.084356182,1006,0
690012,-1,-8.71,-6.82,0.41,-0.29,-0.7,11.10749747,0.861510302,0.968212483,-0.000406168,1001,0
691018,-1.39,-9.24,-6.28,0.23,-0.04,-0.16,11.25824587,0.283019434,0.150748399,-0.578490868,1006,0
692019,-1.29,-9.09,-5.93,-0.17,0,0.04,10.92964318,0.174642492,-0.328602689,-0.108376942,1001,0
693025,-1.77,-8.29,-7.54,-0.35,0.31,-0.15,11.34498127,0.491019348,0.415338091,0.316376856,1006,0
694026,-1.55,-6.78,-11.43,0.57,-0.19,0.01,13.37967862,0.600915968,2.034697352,0.10989662,1001,0
695032,-2.4,-7.23,-8.72,-0.02,0.35,-0.07,11.57891618,0.357491259,-1.800762437,-0.243424709,1006,0
696033,-0.12,-7.81,-9.14,0.15,0.22,0.34,12.02289898,0.431856458,0.443982801,0.074365199,1001,0
697039,0.5,-8.36,-8.18,-0.2,-0.44,-0.01,11.70692103,0.483425279,-0.315977955,0.051568821,1006,0
698040,-1.56,-6.35,-10.18,-0.13,-0.29,-0.78,12.09911154,0.842258868,0.392190508,0.358833589,1001,0
699046,0.46,-6.83,-8.15,-0.62,0.39,-0.11,10.64344869,0.740675367,-1.455662848,-0.1015835,1006,0
700047,1.21,-6.3,-10.42,0.05,0.58,0.47,12.23644148,0.748197835,1.592992787,0.007522467,1001,0
701053,0.07,-9.46,-8.01,-0.09,-0.44,-0.49,12.39582994,0.664680374,0.159388468,-0.08351746,1006,0
702054,-0.26,-5.8,-10.75,-0.7,-0.36,0.9,12.21761433,1.195658814,-0.178215611,0.53097844,1001,0
703060,1.28,-3.11,-13.22,-0.53,0.22,0.3,13.641074,0.647533783,1.423459671,-0.548125031,1006,0
704061,-0.95,-4.41,-10.48,0.42,-0.39,0.35,11.40968887,0.671565336,-2.231385139,0.024031553,1001,0
705067,-3.38,-5.54,-9.93,-0.15,-0.08,-0.34,11.86258404,0.380131556,0.45289517,-0.291433779,1006,0
706068,-2.23,-5.69,-10.1,-0.21,0.75,0.34,11.8050413,0.849823511,-0.05754274,0.469691955,1001,0
707074,3.48,-3.17,-12.71,0.31,-1.3,1.47,13.55372274,1.986705816,1.74868144,1.136882305,1006,1
708075,3.82,-2.48,-13.49,-0.56,-1.99,0.13,14.23807922,2.071376354,0.684356489,0.084670538,1001,1
709081,2.63,-1.91,-12.32,-0.06,-0.08,-0.01,12.74156191,0.100498756,-1.496517311,-1.970877598,1006,1
716097,0.19,-4.35,-12.72,0.93,0.84,0.99,13.44458999,1.597059799,0.703028076,1.496561042,7016,0
717103,0.71,-3.53,-11.51,-0.02,-0.17,-0.23,12.06006219,0.286705424,-1.384527801,-1.310354375,1006,0
718104,1.6,-1.95,-12.14,-0.55,0.21,0.23,12.3992782,0.632060124,0.339216016,0.3453547,1001,0
719110,2.09,-0.41,-12.19,-0.12,0.45,-0.04,12.37466363,0.467439836,-0.024614573,-0.164620288,1006,0
720111,4.25,-0.17,-12.4,0,0.04,-0.02,13.1092105,0.04472136,0.734546871,-0.422718476,1001,0
721117,4.63,-0.6,-11.06,0.17,-0.2,-0.24,12.00501978,0.355668385,-1.104190719,0.310947025,1006,0
722118,0.76,-0.71,-12.59,0.03,-0.69,-0.38,12.63288566,0.788289287,0.627865873,0.432620902,1001,0
724124,-7.39,-6.34,-3.84,0.05,-0.01,-0.64,10.46677123,0.642028037,-2.166114425,-0.14626125,2006,0
726130,0.25,-9.14,-7.84,0.15,2.24,0.19,12.04440534,2.253042388,1.577634109,1.611014351,2006,0
727136,1.32,-9.6,-4.84,-0.4,0.78,-0.3,10.83180502,0.926498786,-1.21260032,-1.326543602,1006,0
728137,3.14,-9.33,-5.72,-0.17,0.14,0.08,11.38538098,0.23430749,0.553575957,-0.692191295,1001,0
729143,1.61,-9.4,-5.66,-0.31,-0.92,-0.4,11.08998197,1.05,-0.295399012,0.81569251,1006,0
730144,2.26,-9.65,-5.91,0.17,-0.61,-0.47,11.5394194,0.788606366,0.44943743,-0.261393634,1001,0
731150,1.45,-9.28,-6.52,-0.32,0.12,0.06,11.4337789,0.346987031,-0.105640493,-0.441619334,1006,0
732151,1.74,-10.19,-4.34,-0.01,0.21,-0.16,11.21156992,0.264196896,-0.222208986,-0.082790135,1001,0
733157,1.57,-9.07,-6.85,0.01,0.19,-0.23,11.47398362,0.298496231,0.262413698,0.034299335,1006,0
734158,1.62,-10.03,-5.3,-0.02,0.36,0.16,11.45928881,0.394461658,-0.014694806,0.095965427,1001,0
735164,-0.69,-9.81,-6.59,-0.04,-0.62,-0.49,11.83808684,0.79126481,0.37879803,0.396803152,1006,0
736165,-0.18,-9.88,-3.71,-0.05,-0.08,-0.36,10.55513619,0.372155881,-1.282950648,-0.419108929,1001,0
737171,2.44,-10.83,-5.29,-0.09,-0.34,0.29,12.29742249,0.455850853,1.742286304,0.083694971,1006,0
738172,1.5,-8.81,-5.11,-0.41,-0.06,-0.01,10.29457138,0.414487636,-2.002851109,-0.041363217,1001,0
739178,1.21,-8.62,-5.26,0.33,-0.23,-0.04,10.17035398,0.404227659,-0.124217409,-0.010259977,1006,0
740179,2.75,-8.71,-5.89,-0.04,0.87,0.24,10.86824273,0.903382532,0.697888752,0.499154874,1001,0
741185,2.19,-8.43,-6.17,0.1,-0.39,-0.27,10.67379501,0.484767986,-0.194447714,-0.418614547,1006,0
742186,1.89,-10.35,-5.33,0.03,-0.36,-0.1,11.79421468,0.374833296,1.12041967,-0.109934689,1001,0
743192,2.64,-8.57,-6.05,-0.51,0.71,0.19,10.81743962,0.89459488,-0.97677506,0.519761584,1006,0
744193,2.17,-8.64,-6.41,-0.04,-0.05,0.12,10.97481663,0.136014705,0.157377004,-0.758580175,1001,0
745199,2.2,-9.69,-6.21,0.02,-0.1,-0.05,11.7175168,0.113578167,0.742700175,-0.022436538,1006,0
746200,2.47,-8.43,-7.26,-0.03,-0.19,-0.37,11.39620112,0.417013189,-0.32131568,0.303435022,1001,0
747206,2.99,-8.79,-6.16,-0.47,1.36,0.6,11.14225291,1.559006094,-0.253948207,1.141992904,1006,0
748207,3.37,-8.14,-7.41,-0.19,0.13,-0.07,11.51193294,0.240624188,0.369680025,-1.318381905,1001,0
749213,3.15,-8.48,-7.15,0.04,0.18,0.24,11.53062878,0.302654919,0.018695838,0.062030731,1006,0
750214,3.12,-8.77,-6.06,-0.03,0.14,0.13,11.10724538,0.193390796,-0.423383394,-0.109264123,1001,0
751220,2.41,-10.1,-6.69,0.23,-0.46,-0.38,12.35209294,0.639452891,1.244847557,0.446062095,1006,0
752221,2.75,-9.51,-4.54,-0.14,-0.75,-0.34,10.89101465,0.835284383,-1.461078295,0.195831492,1001,0
753227,3.51,-9.86,-5.48,-0.15,0.29,0.18,11.81397901,0.372827038,0.922964363,-0.462457345,1006,0
754228,1.68,-9.02,-5.17,-0.05,-0.2,0.02,10.53146239,0.207123152,-1.282516621,-0.165703886,1001,0
755234,-0.08,-10.97,-4.15,0.05,-0.34,0.26,11.7290153,0.430929229,1.197552917,0.223806077,1006,1
756235,-0.07,-9.37,-3.24,0.13,-0.1,-0.14,9.914605388,0.215638587,-1.814409916,-0.215290642,1001,1
757241,1.32,-10.14,-6.12,0.3,-0.01,0,11.9170634,0.30016662,2.002458009,0.084528034,1006,1
758242,0.46,-10.04,-3.79,-0.03,-0.1,-0.08,10.74138259,0.131529464,-1.175680804,-0.168637156,1001,1
763258,-0.11,-10.94,-3.07,-0.48,0.32,0.15,11.36312457,0.596070466,0.621741978,0.464541001,5016,1
764259,0.15,-10.34,-1.39,0.24,-0.09,-0.02,10.43408836,0.257099203,-0.929036206,-0.338971263,1001,0
765265,-1.78,-8.38,-1.66,0.1,0.56,0.76,8.72630506,0.949315543,-1.707783305,0.69221634,1006,0
766266,-1.06,-9.67,-1.54,-0.26,0.16,-0.1,9.849065946,0.321247568,1.122760886,-0.628067975,1001,0
767272,-1.37,-9.83,-2.99,-0.31,0.28,0.04,10.36561141,0.419642705,0.516545469,0.098395137,1006,0
768273,-0.92,-9.74,-2.35,-0.03,0.04,-0.02,10.06163506,0.053851648,-0.303976359,-0.365791057,1001,0
769279,-1.19,-9.86,-2.3,-0.02,-0.05,-0.01,10.19439552,0.054772256,0.132760463,0.000920608,1006,0
772285,-0.93,-9.96,-2.54,-0.07,-0.02,-0.01,10.32076063,0.073484692,0.126365112,0.018712437,3006,0
773291,-0.85,-9.44,0.3,0.47,0.19,-0.07,9.482937309,0.511761663,-0.837823322,0.438276971,1006,0
774292,-0.71,-9.73,-0.02,-0.08,-0.04,-0.08,9.755890528,0.12,0.27295322,-0.391761663,1001,0
775298,-2.14,-8.32,-6.23,0.03,0.35,0.11,10.61201677,0.368103246,0.856126245,0.248103246,1006,0
776299,-1.2,-10.04,1.63,-0.34,0.07,0.1,10.24199688,0.361247837,-0.370019898,-0.006855409,1001,0
777305,-2.14,-9.77,-7.54,1.03,-0.71,-0.52,12.52533832,1.354769353,2.283341443,0.993521516,1006,0
779311,-1.57,-11.35,-6.23,0.89,0.15,-0.52,13.04225057,1.041633333,0.516912254,-0.31313602,2006,0
781317,-1.93,-8.97,-1.07,0.35,-0.35,0.21,9.237461773,0.537680202,-3.8047888,-0.50395313,2006,0
782318,1.44,-8.77,-6.55,-0.96,2.01,0.01,11.04033514,2.22750982,1.802873367,1.689829618,1001,0
783324,1.28,-11.35,-4.88,0.32,0.93,0.11,12.42076085,0.989646401,1.380425706,-1.237863419,1006,0
784325,0.66,-10.28,-4.46,-0.25,0.45,-0.29,11.2252216,0.59084685,-1.195539245,-0.398799552,1001,0
785331,1.34,-9.94,-3.41,-0.17,0.1,-0.04,10.59373872,0.201246118,-0.631482885,-0.389600732,1006,0
786332,1.5,-10.24,-4.49,-0.15,0.24,0.02,11.28129868,0.283725219,0.687559967,0.082479101,1001,0
787338,2.49,-11.01,-3.75,0.07,0.1,-0.09,11.89465006,0.151657509,0.613351374,-0.13206771,1006,0
789344,3.29,-9.28,-3.56,0.21,0.2,0.26,10.46977077,0.389486842,-1.424879287,0.237829333,2006,1
790345,-0.88,-12.49,-2.08,-0.51,1.64,-0.05,12.69255293,1.718196729,2.222782164,1.328709887,1001,1
791351,1.83,-9.14,-4.05,-0.15,-0.02,0.25,10.16321799,0.292232784,-2.52933494,-1.425963945,1006,1
792352,1.93,-9.5,-5.01,0.16,-0.12,-0.14,10.91214919,0.244131112,0.748931198,-0.048101672,1001,1
793358,1.23,-9.83,-4.95,-0.13,-0.1,0.06,11.0744887,0.174642492,0.162339509,-0.06948862,1006,1
794359,1.88,-9.72,-4.94,-0.02,-0.11,0.01,11.0641945,0.112249722,-0.010294199,-0.06239277,1001,1
795365,1.25,-10.07,-4.07,-0.02,-0.08,0.02,10.93308282,0.084852814,-0.131111681,-0.027396908,1006,1
796366,1.28,-9.95,-4.49,-0.19,-0.06,-0.01,10.99095082,0.199499373,0.057868001,0.11464656,1001,1
797372,0.76,-9.93,-4.69,-0.01,-0.57,0.14,11.00811519,0.587026405,0.017164365,0.387527031,1006,1
798373,1.03,-9.18,-4.56,0.07,-0.05,-0.02,10.30179111,0.088317609,-0.706324082,-0.498708796,1001,1
799379,1.21,-9.92,-4.2,-0.03,-0.01,0,10.84022601,0.031622777,0.538434906,-0.056694832,1006,1
801385,2.26,-10.2,-3.97,-0.12,-0.06,0.04,11.17624713,0.14,0.336021122,0.108377223,2006,1
802386,1.31,-9.96,-3.96,-0.03,0,0.09,10.79811558,0.09486833,-0.378131558,-0.04513167,1001,1
803392,1.83,-9.77,-3.89,-0.04,0.03,0.11,10.67398239,0.12083046,-0.124133189,0.02596213,1006,1
804393,1.45,-9.59,-4.14,-0.14,-0.08,0.17,10.54562469,0.23430749,-0.128357702,0.113477031,1001,1
805399,0.18,-10.72,-6.4,-0.21,0.09,0.13,12.48642463,0.262868789,1.940799943,0.028561298,1006,1
806400,1.29,-9.97,-3.71,0.27,-0.34,0.12,10.71583408,0.450444225,-1.77059055,0.187575437,1001,1
807406,0.14,-8.93,-4.08,0.11,0.26,-0.04,9.818905234,0.285131549,-0.896928844,-0.165312677,1006,1
808407,1.13,-9.91,-3.45,-0.21,-0.28,0.02,10.55402767,0.350570963,0.735122433,0.065439414,1001,1
809413,0.25,-10.08,-4.98,0,0.15,-0.05,11.24585701,0.158113883,0.691829348,-0.19245708,1006,1
810414,0.41,-9.8,-4.3,-0.05,0,-0.01,10.70971988,0.050990195,-0.536137131,-0.107123688,1001,0
812420,-0.92,-10.6,-2.49,0.22,-0.35,0.25,10.92732813,0.483114893,0.217608243,0.432124698,2006,0
813426,2.13,-12.26,-0.43,-0.2,0.13,0.62,12.45108027,0.664304147,1.523752147,0.181189254,1006,0
815432,0.92,-10.33,-2.41,-0.14,-0.3,-0.15,10.64722499,0.363455637,-1.803855284,-0.30084851,2006,0
816433,0.24,-9.98,-3.42,-0.19,0.17,0.21,10.55245943,0.330302891,-0.094765562,-0.033152746,1001,0
817439,0.86,-9.75,-1.93,0.01,-0.02,0.03,9.976321968,0.037416574,-0.576137461,-0.292886317,1006,0
818440,-0.3,-7.58,-7.24,-1.6,1.29,0.46,10.48637211,2.106110159,0.510050141,2.068693585,1001,0
819446,0.29,-9.53,-6.08,0.34,0.21,0.39,11.3080237,0.558390544,0.821651591,-1.547719614,1006,0
820447,0.9,-9.07,-5.83,0.2,-1.39,-0.56,10.81960258,1.511853167,-0.48842112,0.953462623,1001,0
821453,-2.14,-10.37,-6.4,0.09,-0.02,-0.19,12.37240882,0.211187121,1.552806239,-1.300666047,1006,0
822454,0.78,-9.97,-5.91,-0.44,-0.67,0.1,11.61625585,0.807774721,-0.756152968,0.5965876,1001,0
823460,1.46,-9.21,-5.97,0.34,0.29,-0.01,11.07233489,0.446989933,-0.543920957,-0.360784788,1006,0
824461,1.47,-9.73,-5.47,0.06,-0.13,-0.04,11.25853898,0.148660687,0.186204088,-0.298329245,1001,0
825467,3.07,-10.45,-3.78,0.97,-1.14,-0.01,11.52891148,1.496863387,0.270372502,1.3482027,1006,0
826468,2.27,-9.63,-4.83,-0.13,0.71,-0.12,11.00993642,0.731710325,-0.518975062,-0.765153062,1001,0
827474,2,-9.72,-2.62,-0.06,-0.86,-0.28,10.26366406,0.906421535,-0.746272358,0.17471121,1006,0
828475,0.85,-10.3,-1.87,0.31,-0.35,-0.26,10.50282819,0.534976635,0.239164127,-0.3714449,1001,0
829481,0.64,-9.49,-4.4,-0.27,0.17,0.4,10.4799666,0.511663952,-0.022861588,-0.023312683,1006,0
830482,0.07,-10.39,-4.64,0.31,-0.06,-0.62,11.3792179,0.695772951,0.899251296,0.184108999,1001,0
831488,2.33,-9.27,-2.94,-0.14,-0.09,0.17,10.00027,0.237907545,-1.378947903,-0.457865406,1006,0
832489,-0.35,-10,-3.69,-0.16,0.32,0.26,10.66483005,0.442266888,0.664560054,0.204359343,1001,0
833495,-0.38,-10.63,-4.95,-0.05,0.13,0,11.73216945,0.139283883,1.0673394,-0.302983005,1006,0
834496,0.13,-10.12,-5.08,0.06,-0.37,-0.23,11.32420858,0.439772669,-0.407960868,0.300488786,1001,0
835502,0.51,-9.8,-5.17,-0.06,0.08,-0.04,11.09184385,0.107703296,-0.232364731,-0.332069372,1006,0
836503,1.92,-8.07,-2.02,-0.21,2.08,-1.03,8.537663615,2.330536419,-2.554180235,2.222833123,1001,1
837509,7.95,-6.38,-7.68,-0.17,0.05,0.33,12.76280925,0.374566416,4.225145637,-1.955970003,1006,1
838510,7.39,-8.31,-3.8,0.17,0.43,0.13,11.75194452,0.480312398,-1.010864732,0.105745982,1001,1
839516,8.22,-7.06,-3.46,-0.06,0.03,0.1,11.3746912,0.120415946,-0.377253315,-0.359896453,1006,1
840517,8.26,-6.97,-3.15,0.21,-0.29,-0.2,11.2574864,0.410121933,-0.117204807,0.289705987,1001,1
841523,7.5,-7.34,-3.19,0.05,-0.1,0.01,10.96821316,0.112249722,-0.289273234,-0.297872211,1006,1
842524,7.55,-7.31,-3.21,-0.04,-0.05,0.04,10.98829832,0.075498344,0.020085158,-0.036751377,1001,1
845535,5.18,-9.51,-3.34,0.73,-0.78,0.45,11.33261223,1.159223878,0.344313911,1.083725534,3011,0
846536,1.72,-10.33,-1.58,-0.22,-0.13,-0.34,10.59073652,0.425323406,-0.741875714,-0.733900472,1001,0
847542,3.14,-8.8,-6.53,1.72,0.03,0.16,11.3991447,1.727686314,0.808408186,1.302362908,1006,0
848543,2.22,-9.56,-4.43,-0.09,0.11,0.37,10.76786423,0.396358424,-0.631280478,-1.33132789,1001,0
849549,1.45,-10.06,-5.86,-0.38,0.28,-0.21,11.73225042,0.516623654,0.964386197,0.12026523,1006,0
850550,2.01,-9.91,-5.43,-0.18,0.46,-0.06,11.47750408,0.497594212,-0.254746339,-0.019029442,1001,0
851556,1.84,-9.86,-4.04,0.09,-0.41,-0.43,10.81326963,0.600915968,-0.664234458,0.103321755,1006,0
852557,4.72,-10.05,-4.03,-0.24,0.76,0.35,11.81193464,0.870459649,0.998665017,0.269543681,1001,0
853563,1.98,-9.28,-4.23,0.78,-1,0.01,10.38901824,1.268266534,-1.422916402,0.397806885,1006,0
854564,4.48,-9.9,-1.47,-0.21,0.26,0.45,10.96545941,0.560535458,0.576441166,-0.707731075,1001,0
855570,5.25,-8.87,-1.18,0.15,0.83,0.21,10.37457469,0.86919503,-0.590884717,0.308659572,1006,0
856571,2.5,-10.86,-3.77,0.01,0.03,-0.24,11.76445919,0.242074369,1.389884499,-0.627120661,1001,0
857577,3.17,-9.88,-3.67,-0.04,0.28,-0.06,11.00600745,0.289136646,-0.758451738,0.047062277,1006,0
858578,2.68,-9.79,-2.78,0.07,0.1,-0.02,10.52401539,0.123693169,-0.481992057,-0.165443477,1001,0
859584,4.09,-9.42,-2.06,0.33,-0.03,-0.14,10.47416345,0.359722115,-0.049851942,0.236028946,1006,0
860585,4.49,-9.07,-2.43,0.49,-0.83,0.29,10.40816506,1.006528688,-0.065998387,0.646806573,1001,0
861591,1.54,-10.62,-3.64,0.38,0.27,0.25,11.33161948,0.528961246,0.923454414,-0.477567442,1006,0
862592,3.57,-9.92,-1.61,-0.05,0.7,-0.01,10.66505509,0.701854686,-0.666564392,0.17289344,1001,0
863598,3.21,-10.21,-0.9,-0.09,0.24,0,10.74049347,0.256320112,0.075438384,-0.445534573,1006,0
864599,4.69,-8.19,0.11,-0.41,-0.8,-0.26,9.438447966,0.935788438,-1.302045505,0.679468325,1001,0
865605,5.13,-9.32,-0.36,0.02,-0.04,0.01,10.64466533,0.045825757,1.206217365,-0.889962681,1006,0
866606,4.83,-8.74,-1.85,0.1,-0.12,0.04,10.15573729,0.161245155,-0.488928036,0.115419398,1001,1
867612,4.7,-8.91,-0.54,-0.02,0.3,0.03,10.08809695,0.302158899,-0.067640348,0.140913744,1006,1
868613,5.24,-8.6,-0.25,0.69,0.85,-0.24,10.07373317,1.120803283,-0.014363775,0.818644385,1001,1
869619,8.33,-0.15,4.89,0.07,0.89,-0.59,9.660408894,1.070093454,-0.413324277,-0.05070983,1006,1
870620,7.99,0.23,1.78,0.04,-0.87,0.25,8.189102515,0.906090503,-1.471306379,-0.164002951,1001,1
871626,9.79,-0.63,0.49,-0.07,-0.78,0.21,9.82247932,0.810802072,1.633376805,-0.095288431,1006,1
872627,8.89,-0.79,0.87,0.05,0.08,0.04,8.967335167,0.102469508,-0.855144153,-0.708332564,1001,1
873633,9.67,-1.19,1.05,0,0.33,0.01,9.799362224,0.33015148,0.832027057,0.227681973,1006,1
874634,9.68,-1.04,0.44,-0.01,0.22,0.12,9.745645181,0.250798724,-0.053717043,-0.079352756,1001,1
876640,10.42,-0.98,-0.1,-0.05,-0.2,0.1,10.46646072,0.229128785,0.720815539,-0.021669939,2006,1
877646,10,-0.86,0.28,-0.02,-0.06,0,10.0408167,0.063245553,-0.42564402,-0.165883232,1006,1
878647,9.9,-0.83,0.09,0.01,-0.16,-0.01,9.935139657,0.160623784,-0.105677043,0.097378231,1001,1
880653,10.15,-1.05,0.45,-0.05,0.13,0.03,10.21408341,0.142478068,0.278943758,-0.018145716,2006,1
882659,9.85,-0.92,-0.08,0.04,-0.05,0.09,9.893194631,0.11045361,-0.320888784,-0.032024458,2006,1
883665,10.19,-1.29,-0.22,-0.07,0.04,-0.01,10.27368483,0.081240384,0.3804902,-0.029213226,1006,1
884666,10.03,-0.64,0.35,0.11,-0.17,-0.26,10.05649044,0.329545141,-0.217194389,0.248304757,1001,1
885672,10.24,-1.21,-0.18,-0.2,-0.07,0.04,10.31281242,0.215638587,0.256321978,-0.113906555,1006,1
886673,9.91,-0.37,-0.63,-0.03,-0.04,0.01,9.936895894,0.050990195,-0.375916526,-0.164648391,1001,1
888679,10.16,-0.25,-0.89,-0.04,-0.07,0.03,10.2019704,0.086023253,0.265074504,0.035033058,2006,1
889685,11.1,-2.01,0.32,0.48,0.79,-0.53,11.28505649,1.0655515,1.083086093,0.979528248,1006,1
890686,9.13,-2.12,1.59,-0.09,0.25,0.04,9.506808087,0.268700577,-1.778248404,-0.796850924,1001,0
891692,8.85,-3.32,0.82,-0.09,-0.42,0.05,9.487744727,0.432434966,-0.01906336,0.163734389,1006,0
892693,9.49,-1.89,0.18,-0.14,-0.06,-0.1,9.678047324,0.182208672,0.190302597,-0.250226295,1001,0
893699,9.94,-2.1,-0.75,-0.16,-0.07,-0.06,10.18705551,0.184661853,0.509008188,0.002453182,1006,0
894700,10.27,-1.64,-0.25,-0.09,0.01,0.05,10.40312453,0.103440804,0.216069019,-0.081221049,1001,0
895706,9.93,-1.52,-0.42,0.04,-0.26,0.11,10.05443683,0.285131549,-0.348687699,0.181690744,1006,0
896707,9.88,-1.48,0.41,-0.14,-0.08,-0.1,9.998644908,0.18973666,-0.055791923,-0.095394889,1001,0
897713,9.95,-1.7,0.3,-0.04,-0.04,0.21,10.09863852,0.217485632,0.099993614,0.027748972,1006,0
898714,10.02,-1.85,0.11,-0.06,-0.04,-0.01,10.18994603,0.072801099,0.091307503,-0.144684533,1001,0
899720,10.33,-1.96,-0.59,-0.05,0.07,0.03,10.53084042,0.091104336,0.340894397,0.018303237,1006,0
900721,10.16,-3.01,0.88,-0.79,0.23,-0.18,10.6329723,0.842258868,0.102131881,0.751154532,1001,0
901727,9.29,-5.74,-1.51,0.2,0.44,0.19,11.02414623,0.519326487,0.391173922,-0.322932381,1006,0
902728,2.43,-8.85,-3.76,0.18,-1.45,1.77,9.917913087,2.295168839,-1.106233139,1.775842352,1001,0
903734,2.23,-9.38,-2.53,0.31,-0.46,-0.15,9.967858346,0.574630316,0.049945259,-1.720538523,1006,0
904735,4.1,-8.58,-1.84,-0.15,0.01,-0.16,9.685659503,0.219544984,-0.282198843,-0.355085332,1001,0
905741,3.3,-9.17,-4.36,0.62,-0.57,-0.09,10.6765397,0.846994687,0.990880199,0.627449703,1006,0
906742,2.12,-10.59,-2.86,0.31,0.37,-0.57,11.17238112,0.746927038,0.495841423,-0.100067649,1001,0
907748,-2.8,-9.46,-2.75,0.35,-0.48,0.69,10.24178207,0.910494371,-0.930599053,0.163567333,1006,0
908749,-6.86,-7.52,-2.96,0.37,0.98,-0.29,10.60054716,1.08692226,0.358765084,0.176427889,1001,0
909755,-5.75,-7.94,-2.06,0.89,0.46,-0.47,10.01746974,1.106616465,-0.583077415,0.019694204,1006,0
910756,-4.99,-7.92,0.01,-0.14,-0.23,0.13,9.360908076,0.298998328,-0.656561665,-0.807618137,1001,0
911762,-6.2,-7.57,-2.78,-0.54,0.44,-0.21,10.17218266,0.727530068,0.811274581,0.42853174,1006,0
912763,-6.11,-7.14,-2.25,0.24,0.54,0.32,9.66303265,0.672011905,-0.509150006,-0.055518163,1001,0
913769,-6.22,-7.86,-4.22,0.08,-0.11,-0.07,10.87549539,0.152970585,1.212462741,-0.519041319,1006,0
914770,-5.36,-8.13,-3.8,0.15,0.37,0.05,10.45306175,0.402367991,-0.422433639,0.249397405,1001,0
915776,-5.47,-8.02,-3.64,0.01,-0.08,0.08,10.36778183,0.113578167,-0.085279926,-0.288789824,1006,0
916777,-6.16,-7.18,-4.11,-0.05,0.01,0.03,10.31455767,0.059160798,-0.053224153,-0.054417369,1001,1
917783,-5.95,-5.81,-4.5,-0.01,-0.22,0.35,9.45561209,0.413521463,-0.858945583,0.354360665,1006,1
918784,-10.02,-2.48,-3.78,-0.04,0.39,0.38,10.99268848,0.545985348,1.537076389,0.132463885,1001,1
919790,-9.04,-1.47,-3.79,0.08,-0.15,-0.01,9.911942292,0.170293864,-1.080746187,-0.375691484,1006,1
921796,-9.03,-1.28,-4.26,-0.04,-0.08,0.01,10.06612637,0.09,0.154184073,-0.080293864,2006,1
922797,-9.04,-1.24,-4.27,-0.04,-0.17,0.01,10.07432876,0.174928557,0.008202397,0.084928557,1001,1
924803,-9.92,-2.04,-5.11,-0.03,0.03,-0.36,11.34372514,0.362491379,1.269396376,0.187562822,2006,1
925809,-7.64,-3.86,-4.02,-0.02,-0.07,-0.29,9.456722477,0.298998328,-1.887002661,-0.063493051,1006,1
926810,-7.17,-5.27,-4.13,0.12,-0.27,0.38,9.810132517,0.481352262,0.35341004,0.182353934,1001,1
927816,-4.21,-7.98,-6.79,-0.51,0.53,0.24,11.2919706,0.773692445,1.481838082,0.292340183,1006,1
928817,-2.93,-9.16,-2.92,-0.26,0.28,-0.42,10.05071639,0.567802783,-1.241254206,-0.205889663,1001,0
929823,-3.72,-9.37,-5.31,-0.18,-0.76,-0.43,11.39435825,0.891571646,1.343641861,0.323768863,1006,0
930824,-3.94,-8.97,-4.54,-0.02,0.19,0.03,10.7979674,0.193390796,-0.596390852,-0.69818085,1001,0
931830,-5.05,-8.55,-3.65,0.04,0.11,0.38,10.57957939,0.397617907,-0.218388015,0.204227111,1006,0
932831,-6.52,-5.5,1.2,2.05,-0.66,0.69,8.613965405,2.261459706,-1.965613982,1.863841799,1001,0
933837,-5.77,-7.29,-2.58,0.56,0.19,-0.22,9.64849211,0.630951662,1.034526705,-1.630508043,1006,0
934838,-5.78,-7.41,-1.58,-0.67,-0.94,-0.38,9.529580264,1.215277746,-0.118911847,0.584326084,1001,0
935844,-4.98,-7.84,-1.67,0.23,0.5,0.41,9.436890378,0.686294397,-0.092689886,-0.528983349,1006,0
936845,-5.54,-7.78,-2.95,0.2,0.06,-0.15,9.996124249,0.257099203,0.559233871,-0.429195195,1001,0
937851,-5.84,-8.12,-4.19,0.07,0.08,0.04,10.84417355,0.113578167,0.848049302,-0.143521036,1006,0
938852,-5.21,-7.74,-1.95,0.11,0.3,0.14,9.531746954,0.348855271,-1.312426597,0.235277104,1001,0
939858,-5.55,-8.19,-4.35,0.35,0.06,0.03,10.80745576,0.356370594,1.275708806,0.007515323,1006,0
940859,-3.33,-8.17,-1.3,-0.3,0.08,0.26,8.91783606,0.404969135,-1.889619699,0.048598541,1001,0
941865,-5.16,-8.09,-0.71,0.06,0.05,-0.15,9.62173581,0.169115345,0.70389975,-0.235853789,1006,0
942866,-4.61,-7.92,-1.12,-0.06,0.44,0.24,9.232166593,0.504777179,-0.389569217,0.335661833,1001,0
943872,-5.68,-8.22,-3.91,0.04,-0.12,-0.14,10.7293476,0.188679623,1.497181011,-0.316097556,1006,1
944873,-3.14,-7.98,-2.95,-0.12,-0.17,0.03,9.068765076,0.21023796,-1.660582528,0.021558338,1001,1
945879,-7.65,-6.73,-2.84,-0.11,-0.05,0.51,10.57738153,0.524118307,1.508616453,0.313880347,1006,1
946880,-5.69,-7.16,-1.91,0.4,0.53,-0.11,9.342901048,0.673052747,-1.23448048,0.14893444,1001,1
947886,-5.88,-7.88,-2.31,0.02,0.1,0.21,10.09974752,0.233452351,0.756846473,-0.439600396,1006,1
948887,-5.63,-7.52,-3.11,-0.08,-0.07,0.06,9.895423184,0.122065556,-0.204324337,-0.111386794,1001,0
956908,-5.7,-8.01,-4.02,-0.47,-0.3,0.35,10.62122874,0.658331224,0.725805558,0.536265667,8021,0
957914,-8.13,-3.73,-2.57,0.19,-0.24,0.59,9.306701886,0.664680374,-1.314526856,0.006349151,1006,0
958915,-8.87,-1.69,-1.46,-0.42,-0.27,0.18,9.146835518,0.53075418,-0.159866368,-0.133926194,1001,0
959921,-9.31,-1.82,-1.56,-0.02,-0.06,-0.05,9.61364135,0.080622577,0.466805831,-0.450131603,1006,0
961927,-9.07,-1.89,-1.09,0.01,-0.03,-0.1,9.328724457,0.104880885,-0.284916892,0.024258307,2006,0
966938,-8.83,-0.14,-1.53,-0.16,-0.04,0.06,8.962667014,0.175499288,-0.366057444,0.070618403,5011,0
967944,-9.13,-0.41,-0.76,-0.02,0.12,0.06,9.170746971,0.1356466,0.208079957,-0.039852688,1006,0
968945,-9.43,1.04,-2.35,-0.96,-0.4,0.49,9.773893799,1.149652121,0.603146829,1.014005522,1001,0
969951,-9.46,0.45,-2.81,-0.06,-0.45,-0.13,9.878775228,0.472228758,0.104881428,-0.677423363,1006,0
970952,-8.09,1.53,0.91,0.32,-0.51,-0.52,8.283543928,0.795550124,-1.5952313,0.323321366,1001,0
971958,-6.3,-2.48,2.66,0.17,0.35,0.21,7.274338458,0.442153819,-1.00920547,-0.353396305,1006,0
972959,-6.39,-1.45,3.72,0.37,0.16,0.21,7.534785996,0.454532727,0.260447538,0.012378908,1001,0
973965,-6.6,-2.25,3.28,-0.06,-0.28,-0.35,7.705900337,0.452216762,0.171114341,-0.002315965,1006,0
974966,-6.48,-2.23,3.91,-0.1,-0.35,-0.43,7.88995564,0.563382641,0.184055303,0.111165879,1001,0
975972,-7.24,-2.26,3.44,-0.44,0.04,-0.04,8.328193081,0.44362146,0.438237441,-0.119761181,1006,0
976973,-6.06,-3.56,3.55,-0.18,0.31,0.64,7.873988824,0.733552997,-0.454204257,0.289931537,1001,0
977979,-6.83,-3.68,3.57,0.13,0.34,-0.24,8.540269317,0.436004587,0.666280493,-0.29754841,1006,0
978980,-5.01,-3.9,3.99,0.72,0,-1.36,7.498679884,1.538830725,-1.041589433,1.102826138,1001,0
979986,-4.98,-5.92,3.53,0.19,-0.71,0.33,8.50339344,0.805667425,1.004713556,-0.7331633,1006,0
980987,-4.29,-3.13,5.05,0.1,-0.05,-0.1,7.328267189,0.15,-1.175126251,-0.655667425,1001,0
981993,-4.64,-1.21,4.6,0.38,0.29,-0.21,6.644825054,0.522111099,-0.683442135,0.372111099,1006,0
982994,-4.44,-3.82,4.89,-0.03,-0.27,-0.31,7.630078637,0.412189277,0.985253582,-0.109921822,1001,0
984000,-4.91,-3.74,4.68,-0.07,-0.09,-0.06,7.745844047,0.128840987,0.11576541,-0.28334829,1006,0
987006,-6.02,-4.08,4.05,0.06,0.07,0.15,8.324019462,0.176068169,0.578175415,0.047227181,3006,0
988012,-5.33,-4.68,4.06,-0.22,-0.18,-0.08,8.172814693,0.295296461,-0.151204769,0.119228293,1006,0
989013,-8.2,3.66,3.84,0.04,0.39,0.41,9.766329915,0.567274184,1.593515222,0.271977723,1001,0
990019,-9.07,3.03,-1.11,-0.66,-0.44,-0.06,9.626936169,0.795487272,-0.139393746,0.228213088,1006,1
991020,-3.69,0.08,-9.36,0.01,2.38,-0.32,10.0614164,2.40143707,0.434480232,1.605949798,1001,1
992026,-0.37,-3.24,-12.37,-0.16,0.39,0.05,12.79263069,0.424499706,2.73121429,-1.976937364,1006,1
993027,0.88,-1.69,-11.49,-0.64,0.79,-0.09,11.64691375,1.020686044,-1.145716937,0.596186338,1001,1
994033,3.31,-0.47,-12.08,-0.04,-0.03,0,12.53408952,0.05,0.887175762,-0.970686044,1006,1
999044,1.53,-3.65,-11.59,-0.07,-1.06,-2.01,12.2471017,2.27345552,-0.286987818,2.22345552,5011,0
1000050,-2.47,-3.7,-10.47,-0.57,-0.62,-0.95,11.37593073,1.269566855,-0.871170967,-1.003888664,1006,0
1001051,-2.68,-10.16,-5.24,1.1,-1.04,-0.16,11.74161829,1.522235199,0.365687556,0.252668343,1001,0
1002057,0.21,-8.93,-2.88,0.11,0.09,-0.16,9.385275702,0.214009346,-2.356342585,-1.308225853,1006,0
1003058,1.64,-10.01,-1.57,-0.09,0,-0.01,10.26423889,0.090553851,0.878963189,-0.123455494,1001,0
1004064,0.26,-10.2,-2.53,-0.06,0.02,0.05,10.51230232,0.080622577,0.248063426,-0.009931274,1006,0
1005065,1.3,-9.12,-2.35,-0.17,-0.03,-0.03,9.507202533,0.175214155,-1.005099784,0.094591577,1001,0
1006071,0.74,-9.81,-1.75,0.11,-0.23,0.1,9.992307041,0.273861279,0.485104508,0.098647124,1006,0
1007072,2.33,-9.81,-0.89,0.12,-0.16,-0.02,10.12210946,0.200997512,0.129802423,-0.072863766,1001,0
1008078,1.86,-10.35,-1.96,0.36,-0.33,-0.82,10.69690142,0.954410813,0.574791957,0.753413301,1006,0
1009079,1.48,-9.71,-1.49,-0.01,-0.02,-0.07,9.93451559,0.073484692,-0.762385831,-0.880926121,1001,0
1010085,1.01,-9.27,-0.83,0.13,-0.06,-0.09,9.361725268,0.169115345,-0.572790321,0.095630653,1006,0
1011086,1.6,-10.18,-2.31,0.06,-0.08,-0.16,10.56070547,0.188679623,1.198980201,0.019564277,1001,0
1012092,-0.94,-10.42,-4.77,0.03,-0.28,-0.5,11.49838684,0.573846669,0.937681375,0.385167047,1006,0
1013093,-3.6,-9.08,-5.25,-0.54,0.09,0.64,11.08913432,0.842199501,-0.409252522,0.268352832,1001,0
1014099,-3.98,-8.37,-6.06,-0.73,-1.05,-0.53,11.07343217,1.38430488,-0.015702153,0.542105378,1006,0
1015100,-4.52,-9.06,-2.85,-0.69,-0.74,-0.03,10.51838866,1.012225271,-0.555043509,-0.372079608,1001,0
1016106,-0.88,-9.79,-0.44,-0.69,-0.71,-0.05,9.839314,0.991312262,-0.679074659,-0.02091301,1006,0
1017107,0.57,-9.92,-1.4,-0.24,-0.13,-0.03,10.03450547,0.274590604,0.195191468,-0.716721657,1001,0
1018113,-0.26,-10.23,-1.78,-0.19,-0.18,0.16,10.38695817,0.306757233,0.3524527,0.032166629,1006,0
1019114,0.71,-11.4,-1.81,0.09,0.11,0.14,11.56460981,0.199499373,1.177651639,-0.10725786,1001,0
1020120,-1.1,-10.87,-3.79,0.24,1.43,0.46,11.56421204,1.521216618,-0.000397772,1.321717245,1006,0
1021121,-0.89,-9.51,-2.83,0.19,0.45,0.82,9.961982734,0.9544632,-1.602229301,-0.566753418,1001,1
1022127,-2.09,-9.65,-3.59,-0.54,-0.39,-0.18,10.50612678,0.69,0.54414405,-0.2644632,1006,1
1023128,-1.27,-0.9,-12.17,-0.68,-0.02,0.49,12.26914015,0.838391317,1.763013365,0.148391317,1001,1
1024134,0.02,-3.41,-12.5,-0.52,0.43,-0.19,12.95679358,0.700999287,0.687653436,-0.13739203,1006,1
1025135,0.81,-1.05,-12.55,-0.15,0.28,-0.01,12.61986925,0.317804972,-0.33692433,-0.383194315,1001,1
1026141,1.62,-0.77,-12.62,-0.05,-0.01,0,12.74683098,0.050990195,0.126961724,-0.266814777,1006,0
1034162,-1.18,-5.56,-11.49,0.96,-0.65,0.54,12.81897422,1.278944878,0.072143239,1.227954682,8021,0
1036168,-0.7,-9.98,-1.95,-0.05,-0.11,-0.03,10.19278667,0.124498996,-2.626187553,-1.154445882,2006,0
1037169,-0.91,-9.73,-2.33,-0.06,0.03,-0.02,10.04638741,0.07,-0.146399255,-0.054498996,1001,0
1038175,-0.61,-10.01,-2.33,-0.15,-0.03,-0.02,10.29568356,0.154272486,0.249296151,0.084272486,1006,0
1039176,-1.72,-9.59,-2.09,0.21,0.01,0.6,9.964667581,0.635767253,-0.331015981,0.481494767,1001,0
1040182,-2.57,-10.18,-2.06,-0.16,-0.02,-0.05,10.69957476,0.16881943,0.734907177,-0.466947823,1006,0
1041183,0.87,-8.56,-2.08,-1.51,0.42,-0.34,8.851943289,1.603776792,-1.847631468,1.434957362,1001,0
1043189,-5.5,-6.51,-7.55,-0.43,0.02,1.05,11.3856313,1.13481276,2.533688006,-0.468964033,2006,0
1044195,-7.17,-5.41,-7.55,0.4,0.13,0.13,11.73369081,0.440227214,0.348059513,-0.694585546,1006,0
1045196,-4.81,-5.8,-5.9,-0.07,-0.49,-0.17,9.570062696,0.523354564,-2.163628113,0.08312735,1001,0
1046202,-3.2,-9.51,-3.74,1.06,0.96,0.07,10.70830052,1.431817027,1.138237823,0.908462463,1006,0
1047203,-3.41,-10.02,-3.87,0.05,0.11,-0.11,11.26966725,0.163401346,0.561366735,-1.268415681,1001,0
1048209,-3.14,-8.88,-3.18,-0.16,0.1,0.15,9.941146815,0.241039416,-1.328520438,0.077638069,1006,0
1049210,-2.72,-9.12,-5.18,0.03,-0.36,0.17,10.83536801,0.399249296,0.894221199,0.15820988,1001,0
1050216,-3.41,-8.75,-3.98,-0.02,-0.08,0.44,10.19955881,0.447660586,-0.6358092,0.04841129,1006,0
1051217,-3.97,-8.47,-5.19,-0.15,0.07,0.12,10.69756514,0.204450483,0.49800633,-0.243210103,1001,0
1052223,-3.93,-8.94,-3.73,-0.06,0.11,-0.06,10.45377444,0.13892444,-0.243790706,-0.065526043,1006,0
1053224,-5.47,-8.49,-4.16,0.59,0.35,0.04,10.92275606,0.687168102,0.468981624,0.548243662,1001,1
1054230,-5.8,-7.95,-1.96,0.38,1.27,0.99,10.0341467,1.654508991,-0.888609362,0.967340889,1006,1
1055231,1.01,-11.94,-3.63,0.41,-0.07,-0.36,12.52040734,0.550090902,2.486260641,-1.104418089,1001,1
1056237,0.62,-10.07,-2.29,-0.18,-0.03,0,10.34569476,0.182482876,-2.174712585,-0.367608026,1006,1
1057238,0.43,-9.97,-1.68,-0.12,0.03,0,10.11969367,0.123693169,-0.226001086,-0.058789707,1001,1
1058244,0.62,-10,-2.18,-0.07,-0.17,0.01,10.25362375,0.184119526,0.133930078,0.060426358,1006,1
1060250,0.7,-9.97,-1.92,-0.1,0.13,0.05,10.17729335,0.171464282,-0.076330396,-0.012655244,2006,1
1061251,0.71,-10.04,-2.4,-0.14,-0.05,0.01,10.34725567,0.148996644,0.169962321,-0.022467638,1001,1
1062257,0.27,-11.19,-2.42,-0.12,-0.45,0.25,11.45187321,0.528583011,1.104617534,0.379586367,1006,0
1063258,-4.12,-8.85,-2.55,-0.73,0.22,0.24,10.08956887,0.799312204,-1.362304338,0.270729193,1001,0
1064264,-6.17,-6.77,-4.66,-0.02,-0.12,0.39,10.27703265,0.408533964,0.187463775,-0.39077824,1006,0
1065265,-5.76,-8.07,-0.75,-0.5,-2.47,0.24,9.943088052,2.531501531,-0.333944594,2.122967566,1001,0
1066271,-0.57,-9.42,-2.75,-1.07,0.15,-0.44,9.829740587,1.166619047,-0.113347465,-1.364882484,1006,0
1067272,0.33,-9.4,-4.76,0.06,0.16,-0.03,10.54165547,0.173493516,0.711914881,-0.993125531,1001,0
1068278,1.17,-9.53,-3.67,0.08,-0.21,-0.42,10.27904178,0.476340215,-0.262613684,0.302846699,1006,0
1069279,1.19,-10.22,-4.27,0.4,-0.62,-0.27,11.13990126,0.785684415,0.860859472,0.3093442,1001,0
1070285,1.84,-10.2,-4.19,0.58,-1.32,0.12,11.17952146,1.446789549,0.0396202,0.661105134,1006,0
1071286,1.29,-10.37,-2.61,0.49,1.18,0.22,10.77093775,1.296495276,-0.408583707,-0.150294274,1001,0
1072292,0.76,-10.15,-2.43,0.02,0.98,-0.03,10.46446367,0.980663041,-0.306474075,-0.315832235,1006,0
1073293,2.39,-10.16,-1.75,0.23,0.69,-0.25,10.58301469,0.769090372,0.118551019,-0.211572669,1001,0
1074299,3.82,-9.95,-3.78,0.02,-0.34,0.04,11.30854986,0.342928564,0.725535169,-0.426161808,1006,0
1075300,3,-9.03,-2.67,-0.28,0.12,-0.12,9.882803246,0.327414111,-1.425746617,-0.015514453,1001,0
1076306,1.83,-10.02,-3.65,-0.31,-0.21,0.25,10.81997227,0.450222167,0.937169027,0.122808057,1006,0
1077307,3.48,-9.52,-2.78,-0.09,-0.05,-0.12,10.51043291,0.158113883,-0.309539361,-0.292108284,1001,0
1078313,4.15,-9.69,-3.29,-0.09,0.03,0.21,11.04276686,0.230434372,0.532333951,0.072320489,1006,0
1079314,3.23,-9.83,-4.37,-0.1,0.31,0.06,11.232039,0.331209903,0.189272132,0.100775531,1001,0
1080320,2.53,-9.81,-3.3,0.15,-0.08,0.07,10.65490497,0.183847763,-0.577134022,-0.14736214,1006,0
1081321,5.58,-7.85,-3.44,0.62,0.03,-1,10.22704747,1.17698768,-0.427857501,0.993139917,1001,0
1082327,10.47,0.72,-3.5,0.05,0.13,-0.32,11.06296976,0.348998567,0.835922292,-0.827989113,1006,0
1083328,9.6,1.3,-2.65,0.4,0.21,0.07,10.04353026,0.457165178,-1.019439508,0.108166611,1001,0
1084334,10.95,-0.29,-2.15,0.24,0.34,0.59,11.16284462,0.72201108,1.119314364,0.264845902,1006,0
1085335,9.56,-0.37,-0.83,-0.13,0.21,0.01,9.603093252,0.247184142,-1.559751368,-0.474826938,1001,0
1086341,10.75,-0.01,-2.47,-0.07,0.01,0.06,11.03011786,0.092736185,1.427024608,-0.154447957,1006,0
1087342,10.15,-0.14,-2.79,0.08,-0.09,-0.18,10.52740234,0.216564078,-0.502715521,0.123827893,1001,0
1088348,10.49,-0.23,-3.15,-0.12,-0.12,0.06,10.9551586,0.18,0.427756264,-0.036564078,1006,0
1089349,10.58,-0.19,-2.3,0.02,0.06,-0.01,10.82878109,0.064031242,-0.126377507,-0.115968758,1001,0
1090355,10.34,-0.4,-2.27,0.03,-0.09,0.02,10.59379535,0.096953597,-0.234985741,0.032922355,1006,1
1091356,10.32,-0.68,-2.79,-0.08,-0.02,-0.02,10.7120913,0.084852814,0.118295945,-0.012100783,1001,1
1092362,10.34,-0.66,-3.05,0.03,-0.05,-0.04,10.80063424,0.070710678,0.088542942,-0.014142136,1006,1
1093363,10.21,-0.55,-2.87,-0.04,-0.06,-0.06,10.61995763,0.093808315,-0.180676614,0.023097637,1001,1
1094369,10.37,-0.5,-2.98,0.07,-0.02,-0.02,10.80126381,0.075498344,0.181306188,-0.018309971,1006,1
1095370,10.33,-0.45,-3.04,0,-0.05,-0.07,10.77743012,0.086023253,-0.023833695,0.010524908,1001,1
1096376,10.46,-0.49,-2.81,-0.18,-0.04,0.11,10.84194632,0.214709106,0.064516199,0.128685853,1006,1
1097377,10.42,-0.54,-3.1,-0.01,-0.03,-0.01,10.88475999,0.033166248,0.042813668,-0.181542858,1001,1
1099383,10.82,-0.57,-3.38,-0.24,-0.17,0.04,11.34996476,0.296816442,0.465204769,0.263650194,2006,1
1100389,10.77,-0.17,-3.48,-0.08,0.1,0.15,11.31954946,0.197230829,-0.030415297,-0.099585612,1006,1
1101390,11.24,-0.09,-2.1,0.18,0.34,-0.17,11.43484587,0.420594817,0.115296406,0.223363988,1001,1
1102396,10.38,-0.33,-3.17,-0.07,-0.01,0.06,10.85827795,0.092736185,-0.576567919,-0.327858632,1006,1
1103397,10.67,-0.24,-3.16,-0.16,0,0.2,11.13068282,0.256124969,0.27240487,0.163388785,1001,1
1104403,11.11,-0.26,-2.26,-0.05,0.02,-0.04,11.34051586,0.067082039,0.209833043,-0.18904293,1006,1
1105404,10.46,-0.51,-3.51,0,-0.02,0.03,11.04498981,0.036055513,-0.295526047,-0.031026527,1001,1
1106410,10.67,-0.32,-2.97,0.26,-0.01,-0.03,11.08026173,0.261916017,0.035271915,0.225860504,1006,0
1107411,12.47,0.15,-2.2,0.27,-0.02,0.73,12.66346714,0.778588466,1.58320541,0.516672449,1001,0
1108417,8.46,-6.96,-1.16,0.05,-0.4,0.36,11.01629702,0.540462765,-1.647170121,-0.238125702,1006,0
1109418,4.84,-9.17,-5.41,-0.83,-0.14,0.13,11.69540936,0.851704174,0.679112337,0.311241409,1001,0
1110424,4.89,-8.42,-5.94,0.12,-0.32,-0.2,11.40579239,0.395979797,-0.289616968,-0.455724377,1006,0
1111425,4.32,-8.42,-4.52,0.14,-0.53,-0.29,10.4875736,0.620161269,-0.918218789,0.224181472,1001,0
1112431,4.82,-9.21,-5.42,0.93,-0.91,-0.08,11.7231779,1.303610371,1.235604298,0.683449102,1006,0
1113432,4.1,-9.09,-2.68,0.37,-0.51,0.43,10.32572031,0.762823702,-1.397457583,-0.540786669,1001,0
1114438,4.77,-9.31,-4.82,0.03,0.05,0.01,11.51787307,0.059160798,1.192152754,-0.703662904,1006,0
1115439,3.74,-9.05,-3.56,-0.24,-0.15,-0.14,10.41939058,0.315753068,-1.09848249,0.25659227,1001,0
1116445,4.68,-8.8,-4.15,-0.06,-0.08,-0.02,10.79652259,0.10198039,0.377132011,-0.213772678,1006,0
1117446,5.25,-6.31,-3.85,0.05,0.14,-0.89,9.066482229,0.902330316,-1.73004036,0.800349926,1001,0
1118452,7.55,-7.05,-4.85,-0.04,-0.15,0.44,11.41172643,0.466583326,2.345244197,-0.435746991,1006,0
1119453,5.1,-7.5,-3,0.29,0.1,-0.01,9.553009997,0.306920185,-1.858716428,-0.159663141,1001,0
1120459,4.85,-8.97,-3.92,-0.43,-0.69,0.05,10.92473341,0.814555093,1.37172341,0.507634908,1006,0
1121460,7.37,-7.99,-2.31,0.01,0.59,-0.52,11.11274494,0.786511284,0.188011529,-0.028043809,1001,0
1122466,7.3,-5.77,-2.63,0.51,0.63,1.25,9.669529461,1.489798644,-1.443215474,0.70328736,1006,0
1123467,-6.71,-7.16,-1.58,-0.66,0.69,1.44,9.939119679,1.727802072,0.269590218,0.238003428,1001,0
1125473,-5.82,-7.27,-4.86,-0.93,-1.19,0.48,10.50451808,1.584739726,0.565398396,-0.143062346,2006,0
1126479,-3.19,-9.95,-4.55,-0.19,-0.66,0.8,11.39653895,1.054371851,0.892020873,-0.530367875,1006,0
1127480,-3.67,-6.13,-4.08,-0.88,0.71,1.23,8.227526967,1.670748335,-3.169011981,0.616376484,1001,0
1128486,-6.16,-8,-4.64,0.18,-0.41,0.03,11.11193952,0.448776113,2.884412557,-1.221972222,1006,0
1129487,-4.82,-8.07,-2.74,-0.44,-0.3,0.12,9.791062251,0.545893763,-1.320877274,0.097117649,1001,0
1130493,-5.5,-9.09,-4.36,0.42,-0.14,-0.44,11.48423702,0.624179461,1.693174772,0.078285699,1006,0
1131494,-5.12,-7.16,-3.21,0.05,0.12,0.29,9.369316944,0.317804972,-2.114920079,-0.30637449,1001,0
1132500,-6.29,-5.15,-4.63,-0.01,0.49,-0.2,9.35539951,0.529339211,-0.013917434,0.211534239,1006,0
1133501,-6.67,-7.44,-3.73,0.04,0.29,0.2,10.66561766,0.354541958,1.310218146,-0.174797253,1001,1
1134507,-6.65,-6.84,-3,-0.06,0.21,0.02,10.00040499,0.219317122,-0.665212665,-0.135224836,1006,1
1135508,-6.74,-6.64,-3.59,-0.03,0.01,-0.01,10.11955039,0.033166248,0.119145393,-0.186150874,1001,1
1139519,-6.79,-6.49,-3.62,-0.05,-0.04,0.01,10.06621081,0.064807407,-0.053339579,0.031641159,4011,0
1141525,-6.59,-8.11,-3.81,0.44,0.43,-0.57,11.12278293,0.838689454,1.056572119,0.773882047,2006,0
1142531,-0.89,-10.57,-3.93,-0.66,0.44,0.23,11.31202458,0.825893456,0.18924165,-0.012795998,1006,0
1143532,-1.93,-9.09,-4.35,0.02,0.41,-0.12,10.26038498,0.427668096,-1.051639593,-0.39822536,1001,0
1144538,-1.3,-9.85,-2.26,0.04,0.53,0.36,10.18921489,0.641950154,-0.071170097,0.214282058,1006,0
1145539,-1.29,-9.81,-4.52,0.14,0.56,-0.16,10.87798695,0.598999165,0.68877206,-0.042950989,1001,0
1146545,-1.34,-9.13,-2.92,-0.08,-0.23,0.26,9.678786081,0.356230263,-1.199200865,-0.242768903,1006,0
1147546,-1.31,-9.7,-3.82,-0.61,-0.22,-0.51,10.50706905,0.824984848,0.828282968,0.468754586,1001,0
1148552,-2.07,-10.27,-2.11,-0.12,-0.84,-0.44,10.6869032,0.955824252,0.179834151,0.130839403,1006,0
1149553,-1.41,-10.46,-1.63,0.15,0.68,-0.12,10.67972846,0.706611633,-0.007174739,-0.249212619,1001,0
1150559,-1.42,-10.02,-2.67,-0.74,0.05,-0.51,10.46640817,0.900111104,-0.21332029,0.193499471,1006,0
1151560,5.11,-10.47,-2.27,0.71,0.32,0.19,11.86953664,0.801623353,1.403128467,-0.098487751,1001,0
1152566,2.15,-9.55,-3.12,-0.51,0.59,0.01,10.27421043,0.779935895,-1.595326206,-0.021687458,1006,0
1153567,3.83,-9.51,-1.23,-0.06,0.79,-0.39,10.32578811,0.883062852,0.051577674,0.103126957,1001,0
1154573,4.52,-8.99,-2.56,-0.2,0.31,-0.19,10.38287532,0.414969878,0.057087219,-0.468092973,1006,0
1155574,4.52,-9.14,-2.36,0,0.31,-0.21,10.46611676,0.374432905,0.083241434,-0.040536974,1001,0
1156580,4.62,-9.61,-2.54,0.18,0.46,0.37,10.96120887,0.617170965,0.495092117,0.24273806,1006,0
1157581,1.48,-10.03,-3.23,-0.22,0.34,-0.03,10.64068607,0.40607881,-0.320522807,-0.211092155,1001,1
1158587,4.66,-6.89,-2.55,-0.05,0.12,-1.11,8.700011494,1.117586686,-1.940674574,0.711507876,1006,1
1160593,10.11,-0.1,-1.06,-0.03,0.2,-0.28,10.16590871,0.345398321,1.465897221,-0.772188365,2006,1
1161594,10.35,0.55,-2.02,0.02,0.01,-0.05,10.55961174,0.054772256,0.39370302,-0.290626065,1001,1
1162600,10.41,1.53,-2.77,0.13,-0.12,0,10.88034466,0.17691806,0.320732928,0.122145804,1006,1
1163601,10.47,0.95,-0.42,0.14,0.13,-0.04,10.52139725,0.195192213,-0.358947418,0.018274153,1001,1
1164607,9.96,0.71,-1.13,0.02,0.11,-0.01,10.0490099,0.112249722,-0.472387344,-0.082942491,1006,1
1166613,10.2,0.62,-1.1,-0.14,0,0.09,10.2778597,0.16643317,0.228849798,0.054183448,2006,1
1167614,11.11,-1.67,-1,0,0.03,0.76,11.2792287,0.760591875,1.001368998,0.594158705,1001,0
1169620,5.54,-8.04,-5.77,0.5,-0.89,-0.2,11.34134472,1.040240357,0.06211602,0.279648482,2006,0
1170626,2.77,-8.57,-3.47,0.16,-0.37,-0.21,9.651875465,0.454532727,-1.689469252,-0.58570763,1006,0
1171627,2.2,-9,-3.25,0.22,-0.42,-0.34,9.818477479,0.583438086,0.166602013,0.128905359,1001,0
1172633,4.13,-8.65,-3.92,-0.11,-0.43,0.15,10.35595481,0.468508271,0.53747733,-0.114929815,1006,0
1173634,3.31,-9.45,-2.78,0.15,-1.12,0.05,10.39167936,1.131105654,0.035724555,0.662597383,1001,0
1174640,5.24,-8.9,-3.54,0.18,-1.25,-0.41,10.91783861,1.327780102,0.52615925,0.196674449,1006,0
1175641,5.05,-9.37,-1.91,0.01,-0.04,-0.1,10.81422674,0.108166538,-0.103611873,-1.219613564,1001,0
1176647,4.37,-7.64,0.59,0.26,-1.1,-0.46,8.821258414,1.220327825,-1.992968327,1.112161287,1006,0
1177648,5.32,-8.34,-3.91,-1.13,-0.41,0.02,10.63701556,1.202247895,1.815757145,-0.01807993,1001,0
1178654,0.87,-9.91,-0.74,0.16,0.3,0.12,9.975600233,0.360555128,-0.661415326,-0.841692767,1006,0
1179655,-2.99,-9.64,-1.54,0.01,0.77,0.21,10.20986288,0.798185442,0.234262646,0.437630315,1001,0
1180661,-3.69,-7.51,-1.45,0.21,0.45,0.29,8.492272958,0.575065214,-1.71758992,-0.223120228,1006,0
1181662,-4.03,-9.97,-3.07,0.54,0.49,-0.14,11.1833224,0.742495791,2.691049446,0.167430578,1001,0
1182668,-1.67,-9.92,-1.93,-0.23,-0.57,-0.14,10.24305618,0.6303967,-0.94026622,-0.112099091,1006,0
1183669,-1.24,-9.67,-3.55,-0.3,0.09,0.29,10.37540361,0.426848919,0.132347422,-0.203547781,1001,0
1184675,-2.67,-9.53,-3.31,0.32,-1.08,-0.18,10.43579896,1.140701539,0.060395357,0.713852619,1006,0
1185676,0.28,-10.64,-2.86,-0.03,0.16,-0.54,11.02123405,0.564003546,0.585435088,-0.576697992,1001,0
1186682,-1.62,-9.63,-2.9,0.14,0.04,0.15,10.18681992,0.20904545,-0.834414135,-0.354958096,1006,1
1188688,-8.71,-3.44,-3.93,0.04,-0.08,-0.13,10.15591453,0.157797338,-0.030905383,-0.051248111,2006,1
1189689,-12.28,-4.24,-2.88,-0.05,-2.12,0.56,13.30678023,2.193285207,3.150865694,2.035487869,1001,1
1200720,0.11,-0.56,7.31,-0.06,-0.03,-0.09,7.332243858,0.112249722,-5.974536368,-2.081035486,11031,1
1201721,-2.21,-5.54,4.96,0.48,0.52,0.24,7.757402916,0.747261668,0.425159057,0.635011946,1001,0
1202727,-2.98,-7.8,1.79,-0.38,-0.71,0.68,8.539584299,1.05399241,0.782181383,0.306730742,1006,0
1203728,-0.65,-11.42,-1.99,0.12,-0.05,0.49,11.61029715,0.506951674,3.070712855,-0.547040736,1001,0
1204734,0.25,-10.28,-3.85,0.12,-0.51,-0.49,10.98013661,0.717356257,-0.630160543,0.210404583,1006,0
1205735,-0.6,-10.35,-3.17,0.04,-0.01,0.12,10.84118997,0.126885775,-0.13894664,-0.590470482,1001,0
1206741,0.25,-10.05,-3,-0.04,-0.08,0,10.49118678,0.089442719,-0.350003194,-0.037443056,1006,0
1207742,-0.32,-9.99,-2.86,-0.15,-0.04,0.13,10.39625413,0.202484567,-0.094932644,0.113041848,1001,0
1208748,-1.14,-9.73,-3.32,0.21,0.07,0.03,10.34383391,0.223383079,-0.052420221,0.020898512,1006,0
1209749,-0.9,-10.09,-2.65,0.04,-0.01,-0.05,10.47094074,0.064807407,0.127106829,-0.158575672,1001,0
1210755,0.1,-10.13,-2.05,-0.07,-0.03,-0.06,10.33583088,0.096953597,-0.13510986,0.03214619,1006,0
1211756,-1.18,-10.56,-2.23,0,-0.03,-0.05,10.85720498,0.058309519,0.5213741,-0.038644078,1001,0
1212762,-0.09,-9.99,-3.19,-0.06,-0.08,0.09,10.48733999,0.13453624,-0.369864994,0.076226722,1006,0
1213763,0.34,-10.35,-4.94,-0.02,-0.2,0.02,11.47352169,0.201990099,0.986181704,0.067453858,1001,0
1214769,0.33,-10.08,-3.27,-0.03,-0.03,0.15,10.60227334,0.155884573,-0.87124835,-0.046105526,1006,0
1215770,0.82,-9.8,-2.36,0.25,0.31,-0.33,10.11345638,0.517204022,-0.488816959,0.361319449,1001,0
1216776,-1.53,-10.69,-3.87,0.09,-0.11,0.19,11.47143845,0.23727621,1.357982063,-0.279927811,1006,0
1217777,3.35,-10.01,-0.16,0.07,0.1,-0.2,10.55690295,0.23430749,-0.91453549,-0.00296872,1001,0
1218783,0.67,-9.78,-2.5,-0.26,0.12,-0.38,10.11668424,0.47581509,-0.440218716,0.2415076,1006,0
1219784,-8.7,-4.72,4.52,0.54,-2.13,0.73,10.88112127,2.315469715,0.764437026,1.839654625,1001,0
1249860,0.52,-0.64,7.35,-0.06,-0.08,-0.01,7.396113844,0.100498756,-3.485007421,-2.214970959,30076,0
