timestamp,ax,ay,az,gx,gy,gz,mag_acc,mag_gyro,diff_acc,diff_gyro,diff_time,label
962,1.79,1.27,6.93,0.43,-0.15,1.07,7.269243427,1.162884345,,,,0
1963,3.15,1.08,6.25,-0.16,0.18,0.12,7.081765317,0.269072481,-0.18747811,-0.893811864,1001,0
2969,-0.08,-0.93,6.83,0,-0.04,-0.15,6.893489682,0.155241747,-0.188275634,-0.113830734,1006,0
3970,1.19,-1.82,7.36,0.02,0.24,-0.66,7.674509756,0.702566723,0.781020074,0.547324976,1001,0
4976,4.48,1.61,8.03,-0.08,-0.32,-0.37,9.335062935,0.495681349,1.660553179,-0.206885374,1006,0
5977,4,-1.4,2.64,-0.25,-2.93,-0.03,4.992955037,2.940799211,-4.342107898,2.445117862,1001,0
7983,0.99,5.61,4.22,-1.27,-0.72,-0.25,7.089471066,1.481148203,2.096516029,-1.459651008,2006,0
8989,4.98,2.56,4.52,0.22,-0.35,1.36,7.196137853,1.421442929,0.106666787,-0.059705274,1006,0
10995,0.42,0.45,6.99,0.35,0.46,0.99,7.017050662,1.146385624,-0.179087191,-0.275057304,2006,0
11996,0.22,3.01,8.24,-0.25,0.74,1.33,8.77531196,1.542400726,1.758261298,0.396015102,1001,0
13002,1.03,2.98,6.24,-0.24,-0.86,1,6.991344649,1.340596882,-1.783967311,-0.201803844,1006,0
14003,0.77,3.85,5.45,0.15,0.18,-0.44,6.716985931,0.498497743,-0.274358718,-0.842099139,1001,0
15009,3.42,3.17,5.87,-0.26,-0.13,-0.11,7.496812656,0.310805405,0.779826725,-0.187692338,1006,0
16010,-1.15,-1.13,5.71,0.07,0.03,-0.12,5.933253745,0.142126704,-1.563558911,-0.168678701,1001,1
17016,2.52,0.85,4.79,-0.14,-0.61,-0.24,5.478777236,0.670298441,-0.454476509,0.528171737,1006,1
18017,-0.91,-0.63,7.01,-0.07,-0.15,-0.04,7.096837324,0.170293864,1.618060088,-0.500004577,1001,1
24033,-1.4,-0.63,6.65,-0.02,0.15,0.04,6.824910256,0.156524758,-0.271927068,-0.013769105,6016,0
25039,3.81,0.73,5.5,0.33,0.47,-0.63,6.730453179,0.852467008,-0.094457076,0.69594225,1006,0
26040,1.3,4.59,5.34,-0.42,-0.38,-1.52,7.16056562,1.622097408,0.430112441,0.7696304,1001,0
27046,1.27,3.45,6.2,0.01,-0.44,0.17,7.208009434,0.471805044,0.047443814,-1.150292363,1006,0
28047,-0.11,2.91,6.82,-0.12,0.07,0.41,7.415699562,0.432897216,0.207690128,-0.038907828,1001,0
29053,1.32,1.82,7.8,-0.28,0.66,2.01,8.11756121,2.134033739,0.701861648,1.701136523,1006,0
30054,2.49,0.09,7.02,0.07,0.35,1.01,7.449067056,1.071214264,-0.668494154,-1.062819475,1001,0
31060,-1.69,0.33,7.46,-0.45,-0.04,-0.04,7.656147856,0.453541619,0.207080801,-0.617672645,1006,0
32061,-0.64,-0.05,6.86,-0.11,0.02,-0.23,6.889970972,0.255734237,-0.766176884,-0.197807382,1001,0
33067,1.96,0.31,7.29,-0.29,-1.6,-1.38,7.55524983,2.132721266,0.665278858,1.876987029,1006,0
34068,4.14,1.7,6.09,-0.55,-0.98,-1.55,7.557625288,1.914523439,0.002375458,-0.218197827,1001,0
35074,-1.26,-0.08,7.68,0.18,1.09,1.02,7.783084222,1.503628944,0.225458933,-0.410894496,1006,0
36075,-0.96,-0.88,7.48,-0.22,-0.14,0.01,7.592522637,0.260959767,-0.190561584,-1.242669177,1001,0
37081,-0.67,-0.27,7.44,-0.07,-0.17,-0.34,7.47498495,0.386522962,-0.117537688,0.125563195,1006,0
38082,-0.01,0.28,7.44,-0.12,0.15,0.88,7.445273669,0.900721933,-0.029711281,0.514198971,1001,0
39088,0.24,-0.5,7.05,-0.25,-0.33,-0.35,7.071781954,0.542125447,-0.373491715,-0.358596486,1006,0
40089,-0.16,1.1,6.77,-0.02,0.04,0.67,6.860648657,0.671490879,-0.211133296,0.129365432,1001,0
41095,0.12,-0.38,7.09,-0.12,0.05,-0.2,7.101190041,0.238537209,0.240541384,-0.43295367,1006,1
42096,0.77,0.06,7.15,0.02,-0.03,-0.08,7.191592313,0.087749644,0.090402272,-0.150787565,1001,1
43102,-0.81,0.2,6.37,-0.29,0.18,0.81,6.424406587,0.878976678,-0.767185726,0.791227034,1006,1
44103,-1.23,-4.42,9.73,-0.17,0.23,-0.36,10.75742534,0.459782557,4.333018755,-0.41919412,1001,1
45109,-2.66,-8.54,3.4,-1.05,0.13,-0.16,9.56907519,1.070046728,-1.188350152,0.610264171,1006,1
46110,-2.06,-9.37,0.05,0.12,0.03,-0.4,9.593904315,0.418688428,0.024829124,-0.6513583,1001,1
47116,-1.23,-9.2,1.38,-0.56,-0.09,-0.23,9.383885123,0.61204575,-0.210019192,0.193357322,1006,1
48117,-1.61,-9.57,-0.55,0.16,0.14,0.04,9.720056584,0.216333077,0.336171461,-0.395712673,1001,1
49123,-1.36,-9.77,-1.82,-0.03,-0.06,-0.01,10.03069788,0.0678233,0.310641298,-0.148509777,1006,1
50124,-1.18,-9.86,-1.54,0.03,-0.13,0.01,10.04905966,0.133790882,0.018361775,0.065967582,1001,1
51130,-1.26,-9.78,-1.72,-0.03,-0.02,0.03,10.00971528,0.046904158,-0.039344377,-0.086886724,1006,1
53136,-0.99,-9.79,-1.36,-0.16,0.03,0.06,9.933468679,0.173493516,-0.076246601,0.126589358,2006,1
54137,-1.03,-9.8,-1.18,-0.17,-0.03,0.02,9.924379074,0.173781472,-0.009089605,0.000287956,1001,1
57148,-2.07,-9.49,-1.05,-0.06,-0.09,-0.38,9.76972364,0.395094925,-0.154655434,0.221313453,3011,1
58149,-0.82,-9.86,-0.09,0.32,0.13,0.19,9.894447938,0.394208067,0.124724298,-0.000886858,1001,0
59155,-0.98,-5.09,6.29,0.38,-0.65,0.25,8.150619608,0.793347339,-1.74382833,0.399139272,1006,0
61161,-0.71,-3.14,5.94,-1.08,-1.5,-0.08,6.756278561,1.850081079,-1.394341047,1.05673374,2006,0
62162,-0.29,-1.44,6.83,-0.83,-0.65,0.16,6.986172056,1.066302021,0.229893495,-0.783779058,1001,0
63168,0.99,-1.07,7.07,-0.37,-0.39,-0.09,7.218718723,0.545068803,0.232546667,-0.521233218,1006,0
64169,-1.14,-1.72,6.22,0.02,-0.78,0.08,6.553350288,0.784346862,-0.665368435,0.239278059,1001,0
65175,0.27,-0.26,7.13,-0.04,-0.03,0.22,7.139845937,0.225610283,0.586495649,-0.558736579,1006,0
66176,-0.92,0,6.32,-0.18,-0.3,-0.19,6.386610995,0.398120585,-0.753234942,0.172510301,1001,0
67182,1.59,-0.49,7,-0.08,-0.3,-0.15,7.195012161,0.344818793,0.808401166,-0.053301792,1006,0
68183,0.21,-0.95,7.75,0,-0.08,-0.36,7.810832222,0.368781778,0.615820061,0.023962985,1001,0
69189,0.78,0.81,6.32,0.13,0.48,-0.09,6.419260082,0.505371151,-1.39157214,0.136589372,1006,0
70190,0.75,-0.12,7.69,0.08,-0.19,0.35,7.727418715,0.40620192,1.308158633,-0.099169231,1001,0
71196,1.51,0.88,7.38,0.67,-0.26,-0.1,7.584121571,0.725603197,-0.143297144,0.319401277,1006,0
72197,1.4,-3.45,6.93,0.19,-0.51,0.03,7.866854518,0.545068803,0.282732947,-0.180534394,1001,0
73203,1.94,-0.95,6.65,0.19,0.07,0.91,6.992038329,0.93225533,-0.874816188,0.387186527,1006,0
74204,0.28,-1.55,5.91,0.4,0.07,1.25,6.116289725,1.3143059,-0.875748604,0.382050571,1001,0
75210,0.03,0.99,7.15,0.27,0,0.36,7.218275417,0.45,1.101985692,-0.8643059,1006,0
76211,-0.77,0.98,7.95,-0.19,-0.57,0.17,8.047098856,0.624419731,0.828823439,0.174419731,1001,0
77217,2.03,1.9,6.82,-0.01,0.11,0.05,7.365005092,0.121243557,-0.682093764,-0.503176174,1006,0
78218,3.9,1.69,6.3,0.01,-0.2,-0.05,7.599743417,0.206397674,0.234738325,0.085154118,1001,0
79224,4.72,2.38,5.6,-0.03,0.01,0.03,7.700831124,0.043588989,0.101087707,-0.162808685,1006,0
80225,5.17,2.43,5.34,0.03,-0.02,0,7.819808182,0.036055513,0.118977058,-0.007533477,1001,0
81231,4.2,1.85,6.25,-0.09,-0.01,0.04,7.75403121,0.098994949,-0.065776972,0.062939437,1006,0
82232,4.31,1.68,6.39,0.05,-0.05,0.08,7.888637398,0.106770783,0.134606189,0.007775833,1001,1
83238,5.31,1.36,5.46,-0.15,-0.27,-0.1,7.736749964,0.324653662,-0.151887435,0.217882879,1006,1
84239,11.23,-1.52,1.22,-0.4,-0.7,0.81,11.39788138,1.142847321,3.661131418,0.81819366,1001,1
85245,10.87,-1.25,-2.24,0.17,-0.1,0.28,11.16857198,0.342490876,-0.229309405,-0.800356446,1006,1
86246,10.01,-4.39,-1.4,-0.18,-0.65,-0.02,11.01962794,0.674759216,-0.148944034,0.332268341,1001,1
87252,5.73,-6.12,-0.13,-0.58,0.32,2.11,8.384759985,2.211537926,-2.634867958,1.53677871,1006,1
88253,9.26,-5.03,-2.47,-0.08,0,-0.02,10.82355764,0.082462113,2.438797656,-2.129075814,1001,1
90259,9.38,-4.82,-1.66,0.01,-0.03,0,10.67578569,0.031622777,-0.147771955,-0.050839336,2006,1
91265,9.2,-4.82,-2.19,0.01,-0.06,-0.02,10.61454191,0.064031242,-0.061243773,0.032408466,1006,1
92266,9.37,-4.49,-0.1,0,-0.19,-0.06,10.39071701,0.199248588,-0.223824901,0.135217346,1001,1
93272,9.63,-4.74,-1.69,-0.09,0.01,0.06,10.86556947,0.108627805,0.474852463,-0.090620784,1006,1
94273,9.4,-4.75,-2.07,-0.02,-0.02,0.02,10.73347101,0.034641016,-0.132098461,-0.073986789,1001,1
95279,9.15,-4.82,-2.14,-0.04,-0.06,0.02,10.56098954,0.074833148,-0.172481477,0.040192132,1006,1
96280,9.09,-4.79,-1.83,-0.06,-0.01,0.07,10.4365272,0.092736185,-0.124462337,0.017903037,1001,1
97286,9.01,-4.92,-2.87,0.02,-0.02,0,10.65942775,0.028284271,0.222900552,-0.064451914,1006,0
98287,8.23,-10.98,0.85,1.3,-0.9,-0.43,13.74830171,1.638566447,3.088873961,1.610282175,1001,0
99293,9.3,-3.69,0.13,-0.23,0.71,-0.64,10.00614811,0.983158176,-3.742153603,-0.65540827,1006,0
100294,9.09,-2.58,1.73,-0.28,0.38,-0.27,9.606112637,0.543783045,-0.400035473,-0.439375132,1001,0
101300,8.16,-2.38,3.78,0.09,0.52,-0.24,9.302601787,0.579741322,-0.303510851,0.035958277,1006,0
102301,9.83,-2.01,2.84,0.17,0.55,0.76,10.42758841,0.953414915,1.124986621,0.373673593,1001,0
103307,5.38,-1.7,5.6,0.1,0.99,-0.16,7.94949055,1.007819428,-2.478097858,0.054404513,1006,0
104308,1.96,-2.56,8.4,-0.23,0.53,-0.87,8.997510767,1.044365836,1.048020217,0.036546408,1001,0
105314,2.73,-2.28,6.64,-0.16,0.17,0.1,7.532655574,0.253968502,-1.464855193,-0.790397334,1006,0
106315,2.44,-1.87,6.77,-0.06,0.1,-0.69,7.435280761,0.699785681,-0.097374813,0.445817179,1001,0
107321,2.48,-0.57,6.63,0.17,0.26,0.09,7.101563208,0.323419233,-0.333717553,-0.376366449,1006,0
108322,1.51,-0.98,6.85,0.02,-0.12,0.11,7.082584274,0.164012195,-0.018978934,-0.159407038,1001,0
109328,1.6,-0.82,6.78,-0.03,0.23,0.04,7.014328193,0.235372046,-0.068256081,0.071359851,1006,0
110329,1.19,-1.22,7.41,-0.28,-0.13,-0.15,7.603459739,0.343220046,0.589131546,0.107848,1001,0
111335,0.61,-1.68,7.1,0.08,-0.42,-0.02,7.321509407,0.428018691,-0.281950332,0.084798645,1006,0
112336,1.56,-0.77,6.67,0.09,-0.11,0.03,6.893141519,0.14525839,-0.428367888,-0.282760301,1001,0
113342,2.17,-0.46,7.07,0.32,-0.17,-1.19,7.409817812,1.243945336,0.516676293,1.098686946,1006,0
114343,-0.07,2.37,5.74,0.25,-0.07,-1.31,6.210426716,1.335477443,-1.199391095,0.091532106,1001,0
115349,-0.35,0.81,7.19,-0.06,-0.44,-0.23,7.243942297,0.50009999,1.03351558,-0.835377453,1006,0
116350,1.98,0.67,6.36,-0.18,0.21,1.15,6.694691927,1.182793304,-0.54925037,0.682693314,1001,0
117356,1,0.78,7.43,-0.51,-0.49,0.98,7.537459784,1.208552854,0.842767857,0.02575955,1006,0
118357,2.09,0.29,7.19,-0.42,-0.35,0.98,7.493216933,1.122185368,-0.044242852,-0.086367486,1001,0
119363,1,-1.04,7.6,-0.31,0.43,0.33,7.735735259,0.624419731,0.242518327,-0.497765637,1006,0
120364,2.09,-3.35,6.68,-0.6,-0.35,-0.8,7.759703603,1.059481005,0.023968343,0.435061274,1001,0
121370,9.38,0.71,1.29,-0.61,0.18,-1.07,9.4948723,1.244748971,1.735168698,0.185267966,1006,0
123376,-0.33,1.02,6.28,0.09,0.23,0.3,6.370847667,0.388587185,-3.124024633,-0.856161786,2006,0
124377,-0.92,2.41,6,0.01,0.51,1.73,6.531041265,1.803635218,0.160193597,1.415048034,1001,0
125383,0.99,2.96,6.05,-0.52,0.31,0.9,6.807657453,1.084665847,0.276616189,-0.718969371,1006,0
126384,1.85,-0.74,7.16,0.02,0.66,-0.05,7.432072389,0.662193325,0.624414936,-0.422472522,1001,0
127390,2.14,0.35,5.37,-0.17,0.6,-1.35,5.791286558,1.487077671,-1.640785831,0.824884346,1006,1
128391,-1.23,2.54,8.68,-0.84,-1.31,-0.79,9.127261364,1.745222049,3.335974805,0.258144378,1001,1
130397,0.21,-0.35,7.21,-0.05,-0.06,-0.01,7.221544156,0.078740079,-1.905717207,-1.66648197,2006,1
131403,0.68,-0.52,7.26,-0.04,-0.03,0,7.310294112,0.05,0.088749956,-0.028740079,1006,1
136414,0.68,-0.5,7.25,-0.06,-0.06,0,7.29896568,0.084852814,-0.011328432,0.034852814,5011,0
137420,-0.18,0.39,7.35,1.53,-0.6,-0.23,7.362540322,1.659457743,0.063574642,1.574604929,1006,0
141431,3.61,4.74,5.01,0.28,-0.02,0.43,7.784587337,0.513517283,0.422047014,-1.14594046,4011,0
142432,4.75,7.26,1.3,0.41,-0.98,-0.46,8.772690579,1.157626883,0.988103243,0.6441096,1001,0
145443,4.63,9.13,-3.34,2.29,-1.39,-0.9,10.76798031,2.825986553,1.995289733,1.668359671,3011,0
148449,-8.05,-0.2,0.94,-0.63,-0.26,0.79,8.107163499,1.043359957,-2.660816813,-1.782626596,3006,0
149455,-7.88,-0.77,3.9,-0.19,-0.29,0.37,8.825944709,0.507050293,0.71878121,-0.536309664,1006,0
150456,-5.84,-2.04,4.77,-0.32,-0.64,-0.27,7.811536341,0.764787552,-1.014408368,0.257737259,1001,0
151462,-3.48,-2.18,6.5,-0.23,-0.55,-0.21,7.688484896,0.632060124,-0.123051444,-0.132727428,1006,0
152463,0.36,-1.22,6.76,0.36,0.88,-0.19,6.878633585,0.969587541,-0.809851311,0.337527417,1001,0
153469,0.5,-1.42,7.19,0.25,-0.49,0.21,7.345917233,0.588812364,0.467283648,-0.380775177,1006,0
154470,-0.45,2.3,7.89,2.75,-2.48,0.51,8.230710783,3.738047619,0.88479355,3.149235255,1001,0
155476,-2.38,1.07,4.68,-0.42,0.17,0.55,5.358329964,0.71260087,-2.87238082,-3.025446749,1006,0
156477,-3.09,0.35,6.36,-0.21,0.26,0.41,7.079562133,0.528961246,1.72123217,-0.183639624,1001,0
157483,-1.25,1.44,7.03,-0.53,0.35,0.55,7.284023613,0.840178552,0.20446148,0.311217306,1006,0
158484,-2.35,2.4,6.57,-0.12,0.52,1,7.378848149,1.133490185,0.094824535,0.293311633,1001,0
159490,0.74,1.06,6.39,-0.3,-0.04,-0.71,6.519455499,0.77181604,-0.85939265,-0.361674145,1006,0
160491,2.81,1.65,7.65,0.08,-0.57,-0.47,8.315112747,0.743101608,1.795657249,-0.028714432,1001,0
161497,0.12,2.26,5.84,0.47,-0.64,0.01,6.263194073,0.794103268,-2.051918674,0.05100166,1006,0
162498,-2.16,2.11,6.43,0.18,0.12,-0.41,7.10370326,0.463573079,0.840509186,-0.330530188,1001,1
163504,-1.55,1.22,6.72,0.07,-0.37,-0.41,7.003520543,0.556686626,-0.100182716,0.093113547,1006,1
164505,-0.74,2.47,5.7,-0.32,0.31,-0.46,6.256077046,0.640390506,-0.747443498,0.083703879,1001,1
165511,-2.49,-5.66,5.19,-0.12,-0.31,-0.11,8.072905301,0.350142828,1.816828256,-0.290247678,1006,1
166512,-2.3,-6.03,4.64,0.17,-0.1,-0.05,7.948616232,0.203469899,-0.124289069,-0.146672929,1001,1
167518,-2.44,-5.37,5,-0.05,-0.08,0.04,7.7324317,0.102469508,-0.216184531,-0.101000392,1006,1
168519,-2.76,-5.11,5.12,0.06,0.04,-0.02,7.742357522,0.074833148,0.009925822,-0.02763636,1001,1
172530,-3,-3.9,6.47,0.35,-0.01,0.29,8.128400827,0.454642717,0.386043305,0.379809569,4011,0
173536,-1.34,0.82,4.42,0.18,0.11,0.1,4.690884778,0.233452351,-3.437516049,-0.221190366,1006,0
174537,-2.04,1,7.98,-0.17,-0.26,0.01,8.29710793,0.310805405,3.606223152,0.077353055,1001,0
175543,-0.74,-0.34,6.97,0,0.17,0.56,7.017414054,0.585234996,-1.279693876,0.27442959,1006,0
176544,0.23,0.32,6.91,-0.18,-0.49,0.91,6.921228215,1.049094848,-0.096185839,0.463859852,1001,0
177550,0.36,0.48,6.95,-0.41,0.48,-0.1,6.975851203,0.639140047,0.054622988,-0.409954801,1006,0
178551,-1.04,-0.27,7.32,0.31,-0.14,-0.79,7.398439025,0.860116271,0.422587822,0.220976224,1001,0
179557,-0.98,-0.21,6.55,-0.53,0.06,0.75,6.626235734,0.920326029,-0.772203291,0.060209758,1006,0
180558,-0.67,-1.16,7.36,-0.5,0.19,1.52,7.480915719,1.61136588,0.854679986,0.691039851,1001,0
181564,-1.45,0.32,7.51,-0.33,-0.09,0.03,7.655390258,0.343365694,0.174474539,-1.268000186,1006,0
182565,-5.23,-0.35,5.55,0.33,0.76,0.34,7.633996332,0.895600357,-0.021393926,0.552234663,1001,0
183571,4.39,-1.96,7.34,-0.26,0.05,0.93,8.774354677,0.96695398,1.140358345,0.071353623,1006,0
184572,-4.98,1.25,5.86,0.1,-0.35,0.77,7.791180912,0.851704174,-0.983173765,-0.115249806,1001,0
185578,0.38,3.39,8.09,-0.13,-0.81,-1.74,8.779783596,1.923694362,0.988602685,1.071990188,1006,0
186579,-6.05,-1.45,5.03,0.96,0.26,-0.11,8.000368742,1.000649789,-0.779414855,-0.923044574,1001,0
187585,-7.75,-0.4,4.59,0.26,0.38,-0.12,9.01612999,0.47581509,1.015761249,-0.524834699,1006,0
188586,-8.73,-1.98,0.9,0.72,0.26,-0.17,8.996849449,0.784155597,-0.019280542,0.308340507,1001,0
189592,-8.28,-0.49,1.32,-0.27,-0.11,0.02,8.398863018,0.292232784,-0.59798643,-0.491922813,1006,0
191598,-6.85,0.85,3.63,-0.66,-0.17,0.33,7.798839657,0.757231801,-0.600023361,0.464999017,2006,0
192599,-5.78,1.43,4.77,-0.37,0.14,0.21,7.629298788,0.447883914,-0.169540869,-0.309347887,1001,0
193605,-6.86,1.19,4.2,-0.07,-0.01,0.04,8.131156129,0.081240384,0.501857341,-0.366643529,1006,0
194606,-5.75,0.44,4.54,0.33,-0.42,-0.36,7.339461833,0.644127317,-0.791694296,0.562886933,1001,0
195612,-6.09,1.84,3.97,0.5,0.62,-0.34,7.498973263,0.866025404,0.15951143,0.221898087,1006,0
196613,-4.26,1.41,5.06,-0.38,-0.11,-0.15,6.763083616,0.423083916,-0.735889647,-0.442941488,1001,0
197619,-3.18,2.43,5.49,-0.29,0.36,0.34,6.793923756,0.573846669,0.03084014,0.150762753,1006,0
198620,-4.56,3.31,4.74,-0.13,0.63,0.22,7.363239776,0.679852925,0.56931602,0.106006256,1001,0
199626,-9.37,4.66,-3.75,-0.69,0.44,0.16,11.11642928,0.833846509,3.753189507,0.153993583,1006,0
200627,-7.7,4.41,-3.75,-0.35,0.34,-0.21,9.633306805,0.531224999,-1.483122478,-0.302621509,1001,0
201633,-8.37,3.1,-2.39,0.08,0.19,0.67,9.240075757,0.700999287,-0.393231048,0.169774287,1006,0
202634,-8.3,3.32,-2.98,-0.21,-0.02,-0.11,9.422993155,0.237907545,0.182917398,-0.463091742,1001,0
203640,-8.12,3.18,-2.36,0.02,-0.08,-0.25,9.034179542,0.263248932,-0.388813613,0.025341387,1006,0
204641,-8.71,2.36,-2.53,0.02,-0.05,0.18,9.372011524,0.187882942,0.337831982,-0.075365989,1001,0
205647,-8.46,2.92,-1.77,0.21,-0.13,0.15,9.123097062,0.288963666,-0.248914462,0.101080723,1006,0
206648,-7.93,2.97,-1.28,-0.46,0.17,0.21,8.564122839,0.533479147,-0.558974223,0.244515481,1001,0
207654,-8.03,3.11,-2.13,-0.24,0.39,0.28,8.870732777,0.536749476,0.306609938,0.003270329,1006,0
208655,-8.57,3.03,-1.98,0.13,-0.42,-0.03,9.303021015,0.440681291,0.432288238,-0.096068185,1001,1
209661,-7.96,0.26,-1.32,0.24,0.2,-0.21,8.072892914,0.376430604,-1.230128101,-0.064250686,1006,1
210662,-6.72,-6.58,-3.02,0.11,0.46,-0.34,9.878015995,0.582494635,1.805123081,0.206064031,1001,1
211668,-7.91,-3.71,-4.65,0.19,0.01,-0.15,9.897206677,0.242280829,0.019190682,-0.340213806,1006,1
212669,-4.77,-5.9,-2.66,-0.84,0.65,-1.5,8.039807212,1.837960827,-1.857399465,1.595679998,1001,1
213675,-2.27,-10.17,-3.88,-0.02,-0.04,-0.92,11.11918162,0.921086315,3.079374413,-0.916874511,1006,1
214676,-1.02,-9.98,-2.38,0.1,-0.41,-0.19,10.31044131,0.462817459,-0.808740315,-0.458268857,1001,1
215682,-1.16,-9.87,-3.07,-0.1,-0.73,-0.3,10.40131722,0.795550124,0.090875915,0.332732666,1006,1
216683,-0.93,-9.85,-3.46,-0.05,-0.01,0.01,10.48136441,0.051961524,0.080047191,-0.7435886,1001,1
222699,-7.47,-6.79,-4.76,-0.71,0.4,0.21,11.16076162,0.841546196,0.679397208,0.789584672,6016,0
223705,-5.69,-6.82,-7.13,-0.44,0.54,0.26,11.38970588,0.743505212,0.228944256,-0.098040984,1006,0
224706,-10.41,-4.02,-6.36,-0.77,1.66,-0.49,12.84438009,1.89436005,1.454674215,1.150854838,1001,0
226712,-9.33,-0.61,-5.1,-0.01,0.16,0.05,10.65039905,0.167928556,-2.19398104,-1.726431494,2006,0
227718,-9.5,0.85,-2.55,-0.92,-0.21,0.12,9.872942824,0.951262319,-0.77745623,0.783333763,1006,0
228719,-8.16,3.05,-2.12,-2.35,0.45,0.78,8.965628812,2.516624724,-0.907314011,1.565362404,1001,0
229725,-7.27,4.82,0.3,0.02,0.14,0.05,8.727846241,0.15,-0.237782572,-2.366624724,1006,0
230726,-5.72,5.47,0.17,0.94,-0.33,0.04,7.916324905,0.997045636,-0.811521336,0.847045636,1001,0
231732,-6.68,5.99,-1.37,-0.03,-0.19,0.34,9.076309823,0.3906405,1.159984918,-0.606405136,1006,0
232733,-3.33,6.73,1.79,-0.36,0.08,-0.08,7.719190372,0.377359245,-1.357119451,-0.013281254,1001,0
233739,-3.53,5.36,4.11,-0.45,0.2,0.57,7.621194132,0.753259583,-0.09799624,0.375900338,1006,0
234740,-2.82,4.13,4.78,0.35,-0.31,0.03,6.91792599,0.468508271,-0.703268142,-0.284751312,1001,0
235746,-3.49,6.34,2.7,0.1,0.03,-0.07,7.724357578,0.125698051,0.806431589,-0.34281022,1006,0
236747,-3.02,5.77,4.23,-0.07,-0.05,0,7.765706665,0.086023253,0.041349086,-0.039674798,1001,0
237753,-2.36,5.41,4.72,0.03,0.14,-0.02,7.557519434,0.144568323,-0.20818723,0.05854507,1006,0
238754,-3.51,7.04,2.53,0.16,-0.03,-0.05,8.263328627,0.170293864,0.705809193,0.025725541,1001,0
239760,-2.88,6.75,2.33,0.03,-0.51,-0.11,7.699727268,0.522589705,-0.563601359,0.352295842,1006,0
240761,-2.86,7.84,1.36,0.41,-0.3,-0.21,8.455459775,0.549727205,0.755732507,0.0271375,1001,0
241767,-3.13,6.67,2.56,-0.55,0.06,-0.07,7.799961538,0.55767374,-0.655498236,0.007946535,1006,1
242768,19.61,-3.61,-19.61,4.37,-4.37,-0.12,27.96669984,6.181278185,20.1667383,5.623604445,1001,1
243774,4.37,-5.06,-10.18,-0.28,-0.56,0.14,12.17919948,0.641560597,-15.78750036,-5.539717588,1006,1
252795,3.92,-5.15,-10.63,-0.03,0.01,-0.01,12.44531237,0.033166248,0.266112889,-0.608394349,9021,1
253801,4.11,-4.85,-11.84,0.15,-0.37,0.15,13.43875738,0.426497362,0.993445013,0.393331114,1006,1
254802,8.39,0.93,-9.06,-0.39,0.8,-1.04,12.38307716,1.368831619,-1.055680221,0.942334256,1001,0
257813,2.51,6.15,6.09,0.01,-0.33,-1.65,9.011697953,1.682706154,-3.371379209,0.313874535,3011,0
259819,1.73,6.99,3.68,-0.52,-1.44,-2.03,8.086742237,2.542616762,-0.924955717,0.859910609,2006,0
261825,0.61,5.58,4.77,-0.03,-0.03,0.53,7.366233773,0.531695402,-0.720508463,-2.010921361,2006,0
262826,1.53,5.77,5.54,-0.27,0,-0.51,8.144040766,0.577061522,0.777806993,0.04536612,1001,0
263832,-1.39,7.98,-3.08,-0.12,-0.12,-0.49,8.665962151,0.518555686,0.521921385,-0.058505835,1006,0
264833,0.46,7.64,3.34,-0.86,0.65,1.05,8.350856244,1.504858797,-0.315105907,0.986303111,1001,0
265839,1.55,6.05,4.55,0.51,-0.59,-0.83,7.727062831,1.138902981,-0.623793412,-0.365955816,1006,0
267845,-8.4,2.97,-2.92,0.07,-2.87,-0.49,9.375889291,2.912370169,1.64882646,1.773467188,2006,0
269851,2.26,0.93,11.89,0.26,-3.67,-0.01,12.1385584,3.679211872,2.762669108,0.766841703,2006,0
270852,1.14,-0.38,7.33,-0.03,0.01,0.12,7.427846256,0.124096736,-4.710712143,-3.555115136,1001,0
